"Time (s)","Acceleration x (m/s^2)","Acceleration y (m/s^2)","Acceleration z (m/s^2)"
3.161493000E-2,1.576870084E0,2.480160713E0,1.017129040E1
4.161493000E-2,1.628913999E0,2.576471806E0,1.022752190E1
5.161493000E-2,1.637887120E0,2.557329178E0,1.015155029E1
6.161493000E-2,1.585843205E0,2.489133835E0,1.004746246E1
7.161493000E-2,1.533201098E0,2.411965132E0,9.967302322E0
8.161493000E-2,1.395613790E0,2.223530531E0,9.802796364E0
9.161493000E-2,1.233500123E0,2.126022816E0,9.751948357E0
1.016149300E-1,1.161715388E0,2.077568293E0,9.647860527E0
1.116149300E-1,1.124028444E0,1.976471543E0,9.534201622E0
1.216149300E-1,1.100100160E0,1.889731646E0,9.358927727E0
1.316149300E-1,1.061216831E0,1.902892232E0,9.253643036E0
1.416149300E-1,1.006780148E0,2.045863390E0,9.162715912E0
1.516149300E-1,1.019940615E0,2.151147604E0,9.137591362E0
1.616149300E-1,1.068395257E0,2.157129526E0,9.247062683E0
1.716149300E-1,1.102493048E0,2.109871387E0,9.366703987E0
1.816149300E-1,1.117448211E0,2.085943222E0,9.413962364E0
1.916149300E-1,1.094118118E0,2.071586132E0,9.452845573E0
2.016149300E-1,1.027119160E0,2.056631088E0,9.410373688E0
2.116149300E-1,9.463613629E-1,1.954936147E0,9.325428009E0
2.216149300E-1,8.793623447E-1,1.968694806E0,9.340383530E0
2.316149300E-1,7.884350419E-1,2.054238319E0,9.488140106E0
2.416149300E-1,7.603194118E-1,2.121835470E0,9.726225853E0
2.516149300E-1,7.800601721E-1,2.155933142E0,9.873384476E0
2.616149300E-1,6.616154313E-1,2.135594130E0,1.001276588E1
2.716149300E-1,5.760720372E-1,2.202593327E0,1.018923664E1
2.816149300E-1,4.516452849E-1,2.234896421E0,1.030409241E1
2.916149300E-1,3.134597540E-1,2.252842426E0,1.041954613E1
3.016149300E-1,2.638086975E-1,2.176870346E0,1.076830006E1
3.116149300E-1,2.428714931E-1,1.962114573E0,1.099920750E1
3.216149300E-1,1.298106313E-1,1.798206210E0,1.098185921E1
3.316149300E-1,-1.184447184E-1,1.670788407E0,1.081256771E1
3.416149300E-1,-3.631108403E-1,1.619940877E0,1.048056316E1
3.516149300E-1,-4.941178858E-1,1.622931957E0,1.021436119E1
3.616149300E-1,-5.670989752E-1,1.669592023E0,1.007617569E1
3.716149300E-1,-7.214360237E-1,1.730010748E0,9.862018585E0
3.816149300E-1,-7.794619799E-1,1.724028707E0,9.757332802E0
3.916149300E-1,-8.602197170E-1,1.622333765E0,9.625128746E0
4.016149300E-1,-9.942178130E-1,1.481755376E0,9.426525116E0
4.116149300E-1,-1.152144074E0,1.393819213E0,9.218349457E0
4.216149300E-1,-1.242473125E0,1.277767301E0,9.114859581E0
4.316149300E-1,-1.262213945E0,1.286740422E0,8.971888542E0
4.416149300E-1,-1.358525038E0,1.372283816E0,9.053244591E0
4.516149300E-1,-1.319043517E0,1.348953724E0,9.167501450E0
4.616149300E-1,-1.333400369E0,1.277169108E0,9.096315384E0
4.716149300E-1,-1.381256819E0,1.223330617E0,8.982656479E0
4.816149300E-1,-1.414756417E0,1.160519004E0,8.864211082E0
4.916149300E-1,-1.384247899E0,1.080359459E0,9.026923180E0
5.016149300E-1,-1.409970760E0,9.415757060E-1,9.304491043E0
5.116149300E-1,-1.380060434E0,8.656035662E-1,9.395418167E0
5.216149300E-1,-1.356730461E0,7.310073376E-1,9.086744308E0
5.316149300E-1,-1.817348838E0,1.435095429E0,9.098110199E0
5.416149300E-1,-9.912267923E-1,1.755135417E0,9.558130264E0
5.516149300E-1,-1.326820135E0,2.201396942E0,9.289535522E0
5.616149300E-1,-1.624128342E0,2.226521492E0,9.190832138E0
5.716149300E-1,-1.706082582E0,1.876571178E0,9.303893089E0
5.816149300E-1,-1.924427629E0,1.488335729E0,8.001599312E0
5.916149300E-1,-2.397010088E0,1.655235052E0,9.329017639E0
6.016149300E-1,-2.028515339E0,1.437488198E0,8.922835350E0
6.116149300E-1,-1.986042738E0,3.389433384E0,8.773882866E0
6.216149300E-1,-3.136392355E0,3.665804386E0,8.726624489E0
6.316149300E-1,-2.523231506E0,2.787638426E0,9.201599121E0
6.416149300E-1,-1.323829174E0,2.474178553E0,9.425926208E0
6.516149300E-1,-5.545366406E-1,2.118246317E0,9.662218094E0
6.616149300E-1,2.243271172E-1,1.896910191E0,1.002652550E1
6.716149300E-1,4.498506486E-1,2.058425665E0,1.049133110E1
6.816149300E-1,-1.094118118E0,4.279563427E0,1.086999512E1
6.916149300E-1,-1.913659930E0,6.508477688E0,1.002831936E1
7.016149300E-1,-2.634497643E0,8.805587769E0,9.027522087E0
7.116149300E-1,-2.514258385E0,7.629515171E0,7.147361279E0
7.216149300E-1,-3.685544968E0,6.334399700E0,4.798805714E0
7.316149300E-1,-3.860819340E0,5.941378593E0,6.996613503E0
7.416149300E-1,-4.198207378E0,5.605186939E0,5.928217888E0
7.516149300E-1,-4.494917393E0,5.486742496E0,5.568098068E0
7.616149300E-1,-5.642873764E0,6.524031162E0,5.609972477E0
7.716149300E-1,-7.407580853E0,9.239884377E0,5.785845280E0
7.816149300E-1,-6.259026051E0,9.004191399E0,4.798207760E0
7.916149300E-1,-6.092724800E0,8.748159409E0,3.253640652E0
8.016149300E-1,-6.360122681E0,7.118049145E0,1.307677627E0
8.116149300E-1,-6.261418819E0,4.038486481E0,-1.094716340E-1
8.216149300E-1,-5.005784988E0,2.124228239E0,-1.108475089E0
8.316149300E-1,-3.544966698E0,1.211964726E0,-2.149951220E0
8.416149300E-1,-3.217149973E0,1.777867198E0,8.093124390E0
8.516149300E-1,3.396611691E0,1.765903115E0,5.791946793E1
8.616149300E-1,6.559325218E0,1.204487133E1,9.939785004E0
8.716149300E-1,4.687539577E0,9.695118904E0,1.134736347E1
8.816149300E-1,-1.042672515E0,7.429714203E0,3.982853174E0
8.916149300E-1,-1.109073281E0,-2.386840582E-1,1.247378445E1
9.016149300E-1,1.313061476E0,-4.108476639E0,1.503589916E1
9.116149300E-1,3.372683525E0,-6.231508255E0,1.552164268E1
9.216149300E-1,2.645863533E0,-5.745167255E0,8.435297966E0
9.316149300E-1,8.315058947E-1,-6.107081413E0,4.724030018E0
9.416149300E-1,1.251446247E0,-7.637291908E0,8.901898384E0
9.516149300E-1,4.165904045E0,-7.737790108E0,1.287218952E1
9.616149300E-1,8.813364029E0,-1.091186905E1,1.181456184E1
9.716149300E-1,1.262034512E1,-1.296610737E1,1.388734436E1
9.816149300E-1,1.180678558E1,-1.203230858E1,1.530150223E1
9.916149300E-1,1.027298546E1,-1.100279713E1,1.374796295E1
1.001614930E0,9.570692062E0,-9.693922997E0,1.180080318E1
1.011614930E0,8.693124771E0,-8.437092781E0,1.078564835E1
1.021614930E0,6.265007973E0,-6.817749977E0,9.332606316E0
1.031614930E0,1.723430514E0,-4.907679081E0,8.186444283E0
1.041614930E0,-5.025525570E0,-1.957328916E0,8.213363647E0
1.051614930E0,-9.447462082E0,1.877767563E0,6.984649181E0
1.061614930E0,-1.735932922E1,1.167817116E1,3.083750248E0
1.071614930E0,-2.288136673E1,1.855633926E1,1.692921966E-1
1.081614930E0,-2.656751060E1,2.342992020E1,1.670190215E0
1.091614930E0,-2.738705063E1,2.572164726E1,2.625524759E0
1.101614930E0,-2.541117859E1,2.574378014E1,2.189432621E0
1.111614930E0,-2.249014091E1,2.349751854E1,3.529413462E0
1.121614930E0,-1.918026733E1,1.970549202E1,5.107480049E0
1.131614930E0,-1.333759308E1,1.242174053E1,7.456035137E0
1.141614930E0,-6.189035892E0,2.557329178E0,9.711869240E0
1.151614930E0,2.008774519E0,-8.949754715E0,1.134437180E1
1.161614930E0,7.520043373E0,-1.798983955E1,1.284527016E1
1.171614930E0,1.518604851E1,-3.096372414E1,8.091927528E0
1.181614930E0,2.084507370E1,-2.942154884E1,1.340219975E1
1.191614930E0,2.468854523E1,-3.258246613E1,1.661815262E1
1.201614930E0,2.416511536E1,-3.222593689E1,1.591227055E1
1.211614930E0,1.944826508E1,-2.915654373E1,1.371386433E1
1.221614930E0,1.237149143E1,-2.473460770E1,1.230987644E1
1.231614930E0,5.788836002E0,-1.981915092E1,1.121456146E1
1.241614930E0,-1.883151412E0,-1.174457169E1,8.837292671E0
1.251614930E0,-1.254377460E1,-3.072384357E0,8.090133667E0
1.261614930E0,-2.278505516E1,5.415555954E0,5.133800983E0
1.271614930E0,-2.905066109E1,1.222493076E1,2.367099762E0
1.281614930E0,-3.371128082E1,2.107598114E1,-1.278365493E0
1.291614930E0,-3.638227081E1,2.705444908E1,-3.616751432E0
1.301614930E0,-3.704328918E1,2.888854790E1,-2.439482689E0
1.311614930E0,-3.496571732E1,2.985465050E1,7.172485590E-1
1.321614930E0,-2.989712334E1,2.619243431E1,-7.178468257E-2
1.331614930E0,-2.487039948E1,1.991665840E1,2.431107759E0
1.341614930E0,-1.950988007E1,1.415294743E1,5.863013744E0
1.351614930E0,-1.278006554E1,5.425127029E0,8.775078773E0
1.361614930E0,-4.517050743E0,-4.831707001E0,1.052183914E1
1.371614930E0,4.741976261E0,-1.823988914E1,1.141854954E1
1.381614930E0,1.267896938E1,-2.549014091E1,9.466604233E0
1.391614930E0,1.950629044E1,-2.747498703E1,1.057149029E1
1.401614930E0,2.072423744E1,-3.019742203E1,1.352303696E1
1.411614930E0,2.095035934E1,-2.733859634E1,1.530210114E1
1.421614930E0,2.121356964E1,-2.576352119E1,1.292782211E1
1.431614930E0,1.623350716E1,-2.350768852E1,1.175773239E1
1.441614930E0,1.029452133E1,-1.887518311E1,9.882955551E0
1.451614930E0,5.631507874E0,-1.365823174E1,9.036494255E0
1.461614930E0,-1.420140266E0,-6.865008354E0,8.577671051E0
1.471614930E0,-9.399605751E0,-3.786641955E-1,7.454838753E0
1.481614930E0,-1.694297981E1,7.448856831E0,5.426921844E0
1.491614930E0,-2.259362984E1,1.359721470E1,2.079362869E0
1.501614930E0,-2.741995239E1,1.968515396E1,1.076770201E-2
1.511614930E0,-3.082733154E1,2.380439758E1,1.301695466E0
1.521614930E0,-3.076093102E1,2.659383011E1,7.884350419E-1
1.531614930E0,-2.744088936E1,2.614876556E1,-2.673979402E-1
1.541614930E0,-2.354298210E1,2.335993195E1,2.224726915E0
1.551614930E0,-1.850668907E1,1.861316872E1,3.996013880E0
1.561614930E0,-1.405603886E1,1.278245831E1,5.101497650E0
1.571614930E0,-6.851847649E0,3.961317778E0,7.263412952E0
1.581614930E0,1.707278967E0,-6.483353138E0,9.409774780E0
1.591614930E0,1.035733318E1,-1.746102524E1,1.072582722E1
1.601614930E0,1.551266956E1,-2.343470764E1,1.124148083E1
1.611614930E0,1.850190353E1,-2.573959351E1,1.004925728E1
1.621614930E0,2.086062813E1,-2.535075951E1,1.291765308E1
1.631614930E0,2.119322968E1,-2.468974304E1,1.193779182E1
1.641614930E0,1.874178314E1,-2.188535500E1,1.184028435E1
1.651614930E0,1.234337521E1,-1.948176384E1,1.021914768E1
1.661614930E0,6.015556335E0,-1.398305702E1,9.665806770E0
1.671614930E0,1.567298770E-1,-9.213563919E0,8.681758881E0
1.681614930E0,-6.797410965E0,-2.821736097E0,7.887341499E0
1.691614930E0,-1.413440323E1,3.952344894E0,6.701099873E0
1.701614930E0,-1.975275040E1,1.002592659E1,5.671587944E0
1.711614930E0,-2.496790695E1,1.661815262E1,4.159922123E0
1.721614930E0,-2.830888557E1,2.120758629E1,3.581457376E0
1.731614930E0,-2.992822838E1,2.509412956E1,2.731407166E0
1.741614930E0,-2.780340195E1,2.556551552E1,1.399203062E0
1.751614930E0,-2.505225563E1,2.356930351E1,1.913061738E0
1.761614930E0,-2.139063835E1,1.963969040E1,2.851048231E0
1.771614930E0,-1.574716568E1,1.393520069E1,3.887140274E0
1.781614930E0,-1.020957565E1,7.589435101E0,5.376672268E0
1.791614930E0,-2.449652195E0,-9.517452121E-1,8.185846329E0
1.801614930E0,6.612565517E0,-1.045364380E1,1.053679466E1
1.811614930E0,1.315813160E1,-1.864547157E1,1.215853024E1
1.821614930E0,1.898345757E1,-2.328096771E1,1.337587833E1
1.831614930E0,2.130150604E1,-2.344188499E1,1.298644638E1
1.841614930E0,2.158146477E1,-2.298306084E1,1.170748329E1
1.851614930E0,2.027438545E1,-2.194397736E1,1.311446285E1
1.861614930E0,1.704945946E1,-1.878126526E1,1.197428226E1
1.871614930E0,1.063071251E1,-1.541157246E1,1.019342422E1
1.881614930E0,3.870390654E0,-1.102911758E1,8.902496338E0
1.891614930E0,-2.120639086E0,-6.937989235E0,8.778069496E0
1.901614930E0,-8.847461700E0,-1.435095429E0,7.727022648E0
1.911614930E0,-1.495932865E1,6.383452415E0,6.134000778E0
1.921614930E0,-2.060579300E1,1.262991619E1,3.806382656E0
1.931614930E0,-2.555295372E1,1.883151436E1,1.646860242E0
1.941614930E0,-2.734816742E1,2.263550377E1,7.986045480E-1
1.951614930E0,-2.809472847E1,2.275035858E1,5.982056726E-3
1.961614930E0,-2.643231583E1,2.222752762E1,6.436693072E-1
1.971614930E0,-2.255355072E1,2.052024841E1,1.506281853E0
1.981614930E0,-1.773919106E1,1.648415565E1,3.287738323E0
1.991614930E0,-1.131745243E1,1.046201897E1,6.195616245E0
2.001614930E0,-5.348556995E0,4.762913704E0,8.158926964E0
2.011614930E0,2.511865616E0,-3.467200041E0,1.069352436E1
2.021614930E0,1.052542877E1,-1.264307690E1,1.334895897E1
2.031614930E0,1.584407520E1,-1.693460464E1,1.422293758E1
2.041614930E0,2.028216362E1,-1.943211174E1,1.466860104E1
2.051614930E0,2.079602242E1,-1.933460426E1,1.528953838E1
2.061614930E0,1.914138412E1,-1.845883179E1,1.582194138E1
2.071614930E0,1.679103470E1,-1.671386528E1,1.469252968E1
2.081614930E0,1.237986660E1,-1.341117287E1,1.282373428E1
2.091614930E0,6.590431690E0,-1.031067276E1,1.197129154E1
2.101614930E0,9.415757060E-1,-5.440082073E0,1.031246758E1
2.111614930E0,-3.971487284E0,-1.121037364E0,9.268598557E0
2.121614930E0,-1.084487057E1,4.426722050E0,7.760521889E0
2.131614930E0,-1.705903053E1,1.074317551E1,4.844269276E0
2.141614930E0,-2.078226280E1,1.541755486E1,1.773679733E0
2.151614930E0,-2.384866524E1,1.921675873E1,1.555334777E-1
2.161614930E0,-2.523351097E1,2.082473564E1,1.434497118E0
2.171614930E0,-2.416571426E1,2.216531372E1,-2.279163599E-1
2.181614930E0,-2.243271255E1,2.100778580E1,-8.727820516E-1
2.191614930E0,-1.948475456E1,1.783550262E1,1.227517962E0
2.201614930E0,-1.573101425E1,1.404227924E1,2.598007202E0
2.211614930E0,-1.153998566E1,9.682557106E0,3.527020693E0
2.221614930E0,-4.898705959E0,2.740978241E0,5.644070625E0
2.231614930E0,1.738385677E0,-4.796412945E0,8.495118141E0
2.241614930E0,8.944969177E0,-1.268854046E1,1.089272690E1
2.251614930E0,1.367737389E1,-1.809811401E1,1.279980659E1
2.261614930E0,1.629093552E1,-2.015594101E1,1.241336536E1
2.271614930E0,1.455254936E1,-2.033779526E1,1.325025558E1
2.281614930E0,1.391007614E1,-1.856052780E1,1.254915810E1
2.291614930E0,1.393280792E1,-1.663550186E1,1.318744373E1
2.301614930E0,1.006361389E1,-1.476909924E1,1.256650639E1
2.311614930E0,5.276772022E0,-1.159262753E1,1.160758305E1
2.321614930E0,1.981855392E0,-7.515855789E0,1.064686394E1
2.331614930E0,-3.097508907E0,-2.382653236E0,8.711071014E0
2.341614930E0,-8.517850876E0,2.823530674E0,8.230711937E0
2.351614930E0,-1.358046532E1,8.469993591E0,6.667600155E0
2.361614930E0,-1.696989822E1,1.234636688E1,4.692923546E0
2.371614930E0,-2.064706802E1,1.640997696E1,3.792025566E0
2.381614930E0,-2.248894310E1,1.955055809E1,2.023729801E0
2.391614930E0,-2.239143562E1,2.164188385E1,-6.281159073E-2
2.401614930E0,-2.160180473E1,2.120519447E1,1.938186288E-1
2.411614930E0,-1.875015831E1,1.882971954E1,1.725823283E0
2.421614930E0,-1.485404491E1,1.510469341E1,3.123830080E0
2.431614930E0,-9.987641335E0,1.017248726E1,4.210171223E0
2.441614930E0,-2.925225735E0,2.557927370E0,6.964310169E0
2.451614930E0,5.149952412E0,-6.447460651E0,1.066720295E1
2.461614930E0,1.270947742E1,-1.460100365E1,1.242592812E1
2.471614930E0,1.640579033E1,-1.955115509E1,1.271366501E1
2.481614930E0,1.790309906E1,-2.038983917E1,1.409910965E1
2.491614930E0,1.739103508E1,-1.979163361E1,1.231825066E1
2.501614930E0,1.729233170E1,-1.825484467E1,1.279382420E1
2.511614930E0,1.415474224E1,-1.619223022E1,1.170449162E1
2.521614930E0,9.150154114E0,-1.264606762E1,1.001874828E1
2.531614930E0,2.955136061E0,-9.041280746E0,9.369695663E0
2.541614930E0,-2.048854351E0,-4.927420139E0,8.824131966E0
2.551614930E0,-8.394021988E0,1.025922656E0,8.539983749E0
2.561614930E0,-1.452921867E1,7.257431030E0,7.641479015E0
2.571614930E0,-1.954277992E1,1.265982628E1,5.927021503E0
2.581614930E0,-2.275454712E1,1.672642899E1,4.408177376E0
2.591614930E0,-2.489313126E1,1.969831467E1,3.148356438E0
2.601614930E0,-2.633779907E1,2.271087837E1,2.218146563E0
2.611614930E0,-2.515993118E1,2.269951248E1,7.800601721E-1
2.621614930E0,-2.216830444E1,2.070090675E1,1.473978758E0
2.631614930E0,-1.807119560E1,1.691067505E1,2.837887764E0
2.641614930E0,-1.203230858E1,1.136291695E1,3.893720627E0
2.651614930E0,-6.969694138E0,5.333601475E0,5.522036552E0
2.661614930E0,3.152543902E-1,-3.135794163E0,8.128418922E0
2.671614930E0,8.252246857E0,-1.212024498E1,1.115952682E1
2.681614930E0,1.416192055E1,-1.823929024E1,1.202991581E1
2.691614930E0,1.554975796E1,-2.203550339E1,1.170748329E1
2.701614930E0,1.634118462E1,-2.042513466E1,1.160459137E1
2.711614930E0,1.392862034E1,-1.925025749E1,8.581260681E0
2.721614930E0,1.227817154E1,-1.687957001E1,9.923035622E0
2.731614930E0,1.121575832E1,-1.436172104E1,1.063968563E1
2.741614930E0,6.780063152E0,-1.140838051E1,1.059541893E1
2.751614930E0,1.389033556E0,-7.463811874E0,9.013762474E0
2.761614930E0,-2.452044964E0,-3.713062525E0,8.087740898E0
2.771614930E0,-7.327421188E0,2.147558212E0,7.060621262E0
2.781614930E0,-1.119601727E1,7.908278942E0,6.515058041E0
2.791614930E0,-1.353021526E1,1.267418289E1,5.843272686E0
2.801614930E0,-1.457228947E1,1.497488213E1,5.517251015E0
2.811614930E0,-1.464885998E1,1.579861164E1,6.078966141E0
2.821614930E0,-1.338664627E1,1.548634815E1,6.479165554E0
2.831614930E0,-1.170927715E1,1.410509109E1,6.532405853E0
2.841614930E0,-9.238089561E0,1.168175983E1,7.594819069E0
2.851614930E0,-6.452246189E0,9.002995491E0,8.839086533E0
2.861614930E0,-4.079762459E0,6.348158360E0,9.655637741E0
2.871614930E0,-2.523829699E0,4.077968121E0,1.043210888E1
2.881614930E0,-9.104689956E-1,1.421336651E0,1.149212933E1
2.891614930E0,1.692921966E-1,-6.580262184E-1,1.208794212E1
2.901614930E0,7.082754970E-1,-1.807777524E0,1.161176968E1
2.911614930E0,7.070791125E-1,-2.286342144E0,1.143470097E1
2.921614930E0,8.979067206E-1,-2.140379906E0,1.164227867E1
2.931614930E0,1.278963685E0,-1.610967875E0,1.136889839E1
2.941614930E0,1.298704505E0,-1.048056364E0,1.082991505E1
2.951614930E0,1.154536963E0,-3.379862010E-1,1.018624592E1
2.961614930E0,1.092323542E0,3.008974493E-1,9.528220177E0
2.971614930E0,9.900303483E-1,8.494520187E-1,9.243474007E0
2.981614930E0,9.086744189E-1,1.235892892E0,9.040681839E0
2.991614930E0,7.052844763E-1,1.840678811E0,8.765507698E0
3.001614930E0,3.565305769E-1,2.215155602E0,8.531010628E0
3.011614930E0,-2.871387079E-2,2.421536446E0,8.426922798E0
3.021614930E0,-3.415754437E-1,2.614757061E0,8.298309326E0
3.031614930E0,-7.034898400E-1,2.883351326E0,8.217551231E0
3.041614930E0,-9.475577474E-1,3.034697294E0,8.384450912E0
3.051614930E0,-1.039083242E0,3.187239647E0,8.574680328E0
3.061614930E0,-1.266401410E0,3.381058455E0,8.450851440E0
3.071614930E0,-1.444068432E0,3.431905985E0,8.336593628E0
3.081614930E0,-1.523031592E0,3.384049416E0,8.709874153E0
3.091614930E0,-1.512263894E0,3.365504980E0,8.910273552E0
3.101614930E0,-1.515254974E0,3.227319479E0,9.011369705E0
3.111614930E0,-1.463809252E0,2.998206854E0,9.179466248E0
3.121614930E0,-1.337587833E0,3.436093330E0,9.528220177E0
3.131614930E0,-1.210768223E0,2.657229662E0,9.490532875E0
3.141614930E0,-1.227517962E0,2.551945448E0,9.682557106E0
3.151614930E0,-9.852447510E-1,2.765504837E0,9.836894035E0
3.161614930E0,-8.739784956E-1,2.786442041E0,1.006480980E1
3.171614930E0,-8.608179688E-1,2.828914642E0,9.887741089E0
3.181614930E0,-9.278169870E-1,2.751745939E0,9.760323524E0
3.191614930E0,-9.122636318E-1,2.704487801E0,9.922437668E0
3.201614930E0,-9.218349457E-1,2.703889608E0,9.898509026E0
3.211614930E0,-9.224331379E-1,2.646461725E0,9.756135941E0
3.221614930E0,-9.690931439E-1,2.535793781E0,9.752547264E0
3.231614930E0,-1.006181955E0,2.487937450E0,9.814760208E0
3.241614930E0,-9.738788009E-1,2.593221426E0,9.771091461E0
3.251614930E0,-9.852447510E-1,2.673979282E0,9.632308006E0
3.261614930E0,-9.469595551E-1,2.669791937E0,9.594022751E0
3.271614930E0,-9.798609018E-1,2.659622431E0,9.694520950E0
3.281614930E0,-9.475577474E-1,2.693720102E0,9.602995872E0
3.291614930E0,-8.566305041E-1,2.723032236E0,9.631111145E0
3.301614930E0,-7.836494446E-1,2.690729141E0,9.764511108E0
3.311614930E0,-7.363911867E-1,2.700300455E0,9.692726135E0
3.321614930E0,-7.322037220E-1,2.657229662E0,9.588040352E0
3.331614930E0,-6.831508875E-1,2.571686029E0,9.593423843E0
3.341614930E0,-7.274180651E-1,2.628515720E0,9.535996437E0
3.351614930E0,-8.769695163E-1,2.698505640E0,9.416953087E0
3.361614930E0,-1.054038405E0,2.696711063E0,9.303294182E0
3.371614930E0,-1.107876897E0,2.724228621E0,9.179466248E0
3.381614930E0,-1.117448211E0,2.776870728E0,9.245866776E0
3.391614930E0,-1.017547846E0,2.864208698E0,9.278169632E0
3.401614930E0,-9.314061999E-1,2.840878725E0,9.225527763E0
3.411614930E0,-8.644071817E-1,2.774477959E0,9.163313866E0
3.421614930E0,-8.398807645E-1,2.731407166E0,9.187840462E0
3.431614930E0,-8.201399446E-1,2.698505640E0,9.244669914E0
3.441614930E0,-8.249256015E-1,2.669791937E0,9.240483284E0
3.451614930E0,-7.962117195E-1,2.679363251E0,9.254241943E0
3.461614930E0,-7.812566161E-1,2.679961443E0,9.306883812E0
3.471614930E0,-7.968099117E-1,2.708076954E0,9.230313301E0
3.481614930E0,-7.639086246E-1,2.723032236E0,9.139386177E0
3.491614930E0,-7.591229677E-1,2.751745939E0,9.205786705E0
3.501614930E0,-7.968099117E-1,2.765504837E0,9.253643036E0
3.511614930E0,-7.441678643E-1,2.689532757E0,9.187242508E0
3.521614930E0,-7.345965505E-1,2.756531715E0,9.257830620E0
3.531614930E0,-7.070791125E-1,2.862414122E0,9.300303459E0
3.541614930E0,-6.113662124E-1,2.872583628E0,9.280562401E0
3.551614930E0,-5.539384484E-1,2.882753134E0,9.318249702E0
3.561614930E0,-5.018945336E-1,2.926422119E0,9.312865257E0
3.571614930E0,-4.504488707E-1,3.003590584E0,9.211769104E0
3.581614930E0,-3.834498227E-1,2.965903759E0,9.163912773E0
3.591614930E0,-3.876372576E-1,2.922832966E0,9.216554642E0
3.601614930E0,-4.157529473E-1,2.907877684E0,9.259625435E0
3.611614930E0,-4.689932466E-1,2.945564747E0,9.241081238E0
3.621614930E0,-5.401797295E-1,2.901895761E0,9.203393936E0
3.631614930E0,-6.400800347E-1,2.843271494E0,9.195018768E0
3.641614930E0,-6.729813814E-1,2.824128866E0,9.290732384E0
3.651614930E0,-6.628118753E-1,2.728415966E0,9.281759262E0
3.661614930E0,-6.227321029E-1,2.551945448E0,9.268598557E0
3.671614930E0,-5.641079545E-1,2.413759947E0,9.283554077E0
3.681614930E0,-3.756731451E-1,2.291725874E0,9.388239861E0
3.691614930E0,-1.884347796E-1,2.197807550E0,9.435498238E0
3.701614930E0,-6.699903309E-2,2.045863390E0,9.460023880E0
3.711614930E0,1.196411322E-3,1.893320918E0,9.417551994E0
3.721614930E0,5.922235921E-2,1.764706731E0,9.399605751E0
3.731614930E0,8.973085135E-2,1.688734531E0,9.509675026E0
3.741614930E0,9.511470050E-2,1.549950838E0,9.434301376E0
3.751614930E0,-3.409772366E-2,1.533799291E0,9.363713264E0
3.761614930E0,-3.894318938E-1,1.755733609E0,9.411569595E0
3.771614930E0,-6.640082598E-1,1.853241086E0,9.236295700E0
3.781614930E0,-7.609176040E-1,1.899302959E0,9.078967094E0
3.791614930E0,-8.153542876E-1,2.114656925E0,9.125029564E0
3.801614930E0,-8.506484628E-1,2.362912416E0,9.171091080E0
3.811614930E0,-9.194421172E-1,2.520240545E0,9.117850304E0
3.821614930E0,-9.918249846E-1,2.548356056E0,9.089735031E0
3.831614930E0,-1.082154036E0,2.581257343E0,9.275776863E0
3.841614930E0,-1.104885817E0,2.571686029E0,9.443274498E0
3.851614930E0,-1.161117196E0,2.523829699E0,9.500701904E0
3.861614930E0,-1.362114310E0,2.478366137E0,9.383454323E0
3.871614930E0,-1.491924882E0,2.496312141E0,9.340981483E0
3.881614930E0,-1.611566067E0,2.595614433E0,9.412167549E0
3.891614930E0,-1.741974831E0,2.685345173E0,9.403194427E0
3.901614930E0,-1.785045743E0,2.665604353E0,9.346364975E0
3.911614930E0,-1.765304923E0,2.737987280E0,9.540781975E0
3.921614930E0,-1.679163337E0,2.815753937E0,9.702297211E0
3.931614930E0,-1.693520188E0,2.815753937E0,9.721440315E0
3.941614930E0,-1.862812400E0,2.541775942E0,9.705288887E0
3.951614930E0,-1.543968797E0,2.772683144E0,9.034101486E0
3.961614930E0,-1.505683661E0,2.830709219E0,9.090332985E0
3.971614930E0,-1.588235974E0,2.648854733E0,9.449854851E0
3.981614930E0,-1.505683661E0,2.525026083E0,9.426525116E0
3.991614930E0,-1.329811215E0,2.574079037E0,9.343972206E0
4.001614930E0,-1.080957651E0,2.538784742E0,9.352347374E0
4.011614930E0,-7.704889178E-1,2.570489645E0,9.383454323E0
4.021614930E0,-7.004988194E-1,2.694916487E0,9.296115875E0
4.031614930E0,-8.380861282E-1,2.617149830E0,9.297910690E0
4.041614930E0,-9.523434043E-1,2.578266382E0,9.384650230E0
4.051614930E0,-1.023529887E0,2.577668190E0,9.485149384E0
4.061614930E0,-7.214360237E-1,2.451446772E0,9.427123070E0
4.071614930E0,-4.731806815E-1,2.438884497E0,9.349356651E0
4.081614930E0,-5.018945336E-1,2.462812662E0,9.364311218E0
4.091614930E0,-4.767699242E-1,2.400599241E0,9.426525116E0
4.101614930E0,-5.300102234E-1,2.447857618E0,9.445667267E0
4.111614930E0,-6.113662124E-1,2.437688112E0,9.436096191E0
4.121614930E0,-8.237292171E-1,2.295315027E0,8.766105652E0
4.131614930E0,-8.961120844E-1,2.246262312E0,8.562117577E0
4.141614930E0,-1.159920812E0,2.375474691E0,9.521040916E0
4.151614930E0,-1.101296663E0,2.309073925E0,9.669396400E0
4.161614930E0,-6.484549642E-1,2.154138565E0,9.104690552E0
4.171614930E0,-3.834498227E-1,2.297109842E0,9.755537987E0
4.181614930E0,-3.990031779E-1,2.880958557E0,9.669994354E0
4.191614930E0,-2.075773627E-1,2.752942562E0,9.512666702E0
4.201614930E0,8.440681696E-1,2.106880426E0,9.282357216E0
4.211614930E0,9.834501147E-1,1.899302959E0,9.932008743E0
4.221614930E0,2.865405083E-1,1.943570137E0,9.239286423E0
4.231614930E0,-6.831508875E-1,2.078764677E0,9.644869804E0
4.241614930E0,-9.780662656E-1,2.158325911E0,1.003190899E1
4.251614930E0,-1.567298889E0,2.065604210E0,9.626325607E0
4.261614930E0,-2.282154560E0,1.600798368E0,1.008215809E1
4.271614930E0,-2.243869543E0,1.639083505E0,1.015334511E1
4.281614930E0,-1.569691658E0,2.054836512E0,9.206384659E0
4.291614930E0,-1.198205948E0,2.151147604E0,9.961918831E0
4.301614930E0,-1.326820135E0,2.191227436E0,1.099681473E1
4.311614930E0,-1.536790371E0,2.593221426E0,1.003669453E1
4.321614930E0,-1.444068432E0,2.746362209E0,9.758528709E0
4.331614930E0,-1.471585870E0,2.703889608E0,9.911669731E0
4.341614930E0,-1.891526341E0,2.569891453E0,9.776474953E0
4.351614930E0,-2.079961061E0,3.081955671E0,1.037049294E1
4.361614930E0,-2.009372711E0,3.288336515E0,1.044945621E1
4.371614930E0,-1.904088616E0,3.140579700E0,1.022094154E1
4.381614930E0,-1.908874273E0,3.005983353E0,1.004088211E1
4.391614930E0,-2.049452543E0,3.075375319E0,9.750154495E0
4.401614930E0,-2.251646042E0,3.178864956E0,9.736394882E0
4.411614930E0,-2.374876499E0,3.216551781E0,9.941579819E0
4.421614930E0,-3.020340443E0,3.323630571E0,9.291330338E0
4.431614930E0,-3.343969584E0,3.674179077E0,1.096929741E1
4.441614930E0,-2.454437733E0,4.451846600E0,1.244566917E1
4.451614930E0,-2.511865616E0,4.711467743E0,9.444471359E0
4.461614930E0,-2.840280533E0,4.506881237E0,9.281160355E0
4.471614930E0,-2.909074068E0,4.303491592E0,1.039442158E1
4.481614930E0,-3.246462107E0,4.478765965E0,1.098664474E1
4.491614930E0,-3.565903902E0,4.767100811E0,1.076171970E1
4.501614930E0,-3.407977581E0,4.653441906E0,1.059482002E1
4.511614930E0,-3.019742250E0,4.285545349E0,1.105304623E1
4.521614930E0,-2.309073925E0,3.765106440E0,1.073838997E1
4.531614930E0,-2.083550215E0,3.411566973E0,1.026281643E1
4.541614930E0,-2.288136721E0,3.227319479E0,1.006480980E1
4.551614930E0,-2.216950178E0,3.194418192E0,9.974481583E0
4.561614930E0,-1.606780410E0,3.184846878E0,9.594022751E0
4.571614930E0,-9.337990284E-1,3.152543783E0,9.394820213E0
4.581614930E0,-4.971089065E-1,3.198007345E0,8.871988297E0
4.591614930E0,-1.609173268E-1,2.961716175E0,8.747561455E0
4.601614930E0,-5.802594870E-2,2.478366137E0,8.359924316E0
4.611614930E0,6.819544733E-2,2.211566210E0,8.298907280E0
4.621614930E0,1.549352705E-1,2.087737799E0,8.175676346E0
4.631614930E0,9.571290575E-3,1.998605132E0,7.624131203E0
4.641614930E0,-4.833501875E-1,2.152343988E0,7.878368378E0
4.651614930E0,-1.375873014E-2,2.746362209E0,8.181060791E0
4.661614930E0,-6.430711150E-1,3.308675528E0,7.784450054E0
4.671614930E0,-1.514058471E0,4.314259052E0,9.308079720E0
4.681614930E0,-3.334996462E0,4.960321426E0,8.727222443E0
4.691614930E0,-5.065007210E0,4.655236244E0,8.248658180E0
4.701614930E0,-5.325825214E0,3.976273060E0,7.521239758E0
4.711614930E0,-3.216551781E0,3.908077478E0,6.731608391E0
4.721614930E0,-1.596610904E0,3.808177233E0,6.489335060E0
4.731614930E0,-5.162515044E-1,1.380658627E0,7.465008259E0
4.741614930E0,2.632703066E0,-1.953141451E0,7.505088329E0
4.751614930E0,2.164308071E0,-1.225244808E1,8.545368195E0
4.761614930E0,8.846863747E0,-1.777508354E1,4.098307133E0
4.771614930E0,1.396391487E1,-1.782832336E1,8.885149002E0
4.781614930E0,1.404706573E1,-1.564188194E1,1.398066425E1
4.791614930E0,1.462553024E1,-1.615215111E1,8.682356834E0
4.801614930E0,1.331725407E1,-1.877049637E1,7.828119278E0
4.811614930E0,8.189435959E0,-1.868914032E1,6.398407936E0
4.821614930E0,3.299702406E0,-1.316830158E1,5.646463394E0
4.831614930E0,-5.511867046E0,-7.866404533E0,6.697510719E0
4.841614930E0,-1.343151188E1,-2.821137905E0,7.063612461E0
4.851614930E0,-2.259303093E1,4.107878208E0,5.620141983E0
4.861614930E0,-3.075076294E1,1.295892906E1,3.950550079E0
4.871614930E0,-3.478745270E1,2.031745720E1,1.690529227E0
4.881614930E0,-3.734478378E1,2.908475876E1,4.066003799E0
4.891614930E0,-4.000559998E1,3.282474136E1,3.895515203E0
4.901614930E0,-3.887080383E1,3.193760109E1,4.448855400E0
4.911614930E0,-3.590071487E1,2.939163780E1,6.415755749E0
4.921614930E0,-3.086202812E1,2.346342087E1,8.348558426E0
4.931614930E0,-2.535016060E1,1.670070648E1,9.612566948E0
4.941614930E0,-2.014696884E1,8.536993027E0,1.054995537E1
4.951614930E0,-1.605643845E1,8.243274093E-1,1.074257755E1
4.961614930E0,-9.461818695E0,-9.864411354E0,9.020941734E0
4.971614930E0,-3.017947674E0,-2.268874359E1,7.483552933E0
4.981614930E0,1.447059512E0,-3.166601753E1,5.699105263E0
4.991614930E0,9.427123070E0,-4.028137589E1,4.916652203E0
5.001614930E0,1.818425560E1,-4.130550385E1,2.273181438E0
5.011614930E0,2.248176575E1,-3.669871902E1,4.387240410E0
5.021614930E0,2.243630219E1,-3.827020645E1,3.779463291E0
5.031614930E0,1.711885071E1,-3.848316956E1,3.879363775E0
5.041614930E0,1.043988514E1,-3.302334595E1,9.445667267E-1
5.051614930E0,4.604389191E0,-2.637548637E1,6.658028960E-1
5.061614930E0,3.571287692E-1,-2.126561356E1,1.324427366E0
5.071614930E0,-6.955337048E0,-1.523928928E1,5.074578762E0
5.081614930E0,-1.551207066E1,-7.325626373E0,8.503493309E0
5.091614930E0,-2.306262207E1,-1.983051777E0,9.461220741E0
5.101614930E0,-3.151766205E1,6.704689026E0,8.380861282E0
5.111614930E0,-4.035375595E1,1.618206215E1,7.073183537E0
5.121614930E0,-4.664867401E1,2.872224617E1,7.381259441E0
5.131614930E0,-4.819802856E1,3.322195053E1,8.267202377E0
5.141614930E0,-4.737310410E1,3.217090225E1,7.702496052E0
5.151614930E0,-4.325864410E1,2.974099159E1,7.644470215E0
5.161614930E0,-3.633560944E1,2.535075951E1,8.962915421E0
5.171614930E0,-3.077708244E1,1.997049713E1,9.824930191E0
5.181614930E0,-2.508395958E1,1.260778236E1,9.952347755E0
5.191614930E0,-2.055913162E1,3.988237143E0,9.276374817E0
5.201614930E0,-1.768056679E1,-3.039483070E0,8.449654579E0
5.211614930E0,-1.415294743E1,-1.239900875E1,6.769893646E0
5.221614930E0,-8.538188934E0,-2.384268379E1,5.507679462E0
5.231614930E0,1.148554832E-1,-3.214398193E1,3.416950703E0
5.241614930E0,5.310869694E0,-3.749612808E1,3.555734396E0
5.251614930E0,1.489053535E1,-4.272624207E1,-3.790829182E0
5.261614930E0,2.414716911E1,-4.245346069E1,2.456232548E0
5.271614930E0,2.853800011E1,-4.232604218E1,4.070191383E0
5.281614930E0,2.592324257E1,-4.124747849E1,-2.291127741E-1
5.291614930E0,1.980240250E1,-3.791726685E1,-1.777867198E0
5.301614930E0,1.284467220E1,-3.205724335E1,-7.513462901E-1
5.311614930E0,7.658228874E0,-2.745225525E1,4.265206456E-1
5.321614930E0,7.944171429E-1,-2.257328987E1,2.919841766E0
5.331614930E0,-6.850052834E0,-1.738505363E1,7.446464062E0
5.341614930E0,-1.470568943E1,-1.042492962E1,9.752547264E0
5.351614930E0,-2.161735725E1,-4.930410862E0,1.158784199E1
5.361614930E0,-2.902374268E1,5.005784988E0,1.387298775E1
5.371614930E0,-3.739742661E1,1.578545094E1,1.294397449E1
5.381614930E0,-4.255276108E1,2.398625183E1,1.122772217E1
5.391614930E0,-4.595714951E1,3.061975479E1,1.140718365E1
5.401614930E0,-4.575675201E1,3.253042221E1,9.436096191E0
5.411614930E0,-4.275315857E1,3.268775177E1,7.399205685E0
5.421614930E0,-3.907120514E1,3.020699310E1,7.615756035E0
5.431614930E0,-3.089074135E1,2.493680191E1,8.322834969E0
5.441614930E0,-2.437867546E1,1.779003906E1,9.183652878E0
5.451614930E0,-1.938605118E1,9.967901230E0,7.987840176E0
5.461614930E0,-1.618564987E1,2.333002090E0,8.156534195E0
5.471614930E0,-1.141795158E1,-1.010488987E1,8.457431793E0
5.481614930E0,-4.322035789E0,-2.269831467E1,4.954339504E0
5.491614930E0,2.242074728E0,-3.087100220E1,4.791627407E0
5.501614930E0,1.068814087E1,-3.617289734E1,3.303889751E0
5.511614930E0,1.877049637E1,-3.559981537E1,-1.103091240E0
5.521614930E0,2.712443924E1,-3.665505219E1,2.074577332E0
5.531614930E0,2.815873718E1,-3.665924072E1,4.095315933E0
5.541614930E0,2.472384071E1,-3.375734329E1,8.745766878E-1
5.551614930E0,1.872024727E1,-2.947359276E1,-3.912265003E-1
5.561614930E0,1.178644657E1,-2.375235367E1,4.737788737E-1
5.571614930E0,5.733801365E0,-1.906062698E1,1.580459356E0
5.581614930E0,-2.049452543E0,-1.311865044E1,3.908675671E0
5.591614930E0,-1.033998489E1,-5.986842155E0,7.351349354E0
5.601614930E0,-1.773440552E1,-4.031906128E-1,8.525627136E0
5.611614930E0,-2.579941368E1,8.214560509E0,8.593224525E0
5.621614930E0,-3.388296509E1,1.820040703E1,8.702695847E0
5.631614930E0,-3.861597061E1,2.763889694E1,1.035613632E1
5.641614930E0,-4.019583130E1,3.290669632E1,1.219920826E1
5.651614930E0,-3.978187180E1,3.470310593E1,1.325145149E1
5.661614930E0,-3.691108322E1,3.299164200E1,1.243669605E1
5.671614930E0,-3.233002472E1,2.756232643E1,1.287099266E1
5.681614930E0,-2.765385056E1,2.135713768E1,1.270469189E1
5.691614930E0,-2.201277161E1,1.251087284E1,1.287278748E1
5.701614930E0,-1.737428474E1,2.610569477E0,1.239183044E1
5.711614930E0,-1.282792187E1,-7.133004189E0,1.196710396E1
5.721614930E0,-6.056832314E0,-1.742333794E1,9.964909554E0
5.731614930E0,2.825923443E0,-2.814138985E1,7.056434155E0
5.741614930E0,1.052004433E1,-3.380699539E1,2.876770973E0
5.751614930E0,1.581775379E1,-3.691347504E1,-5.174478889E-1
5.761614930E0,2.319303131E1,-3.898087692E1,1.915454507E0
5.771614930E0,2.600878525E1,-3.877808380E1,3.194418192E0
5.781614930E0,2.359024048E1,-3.506741333E1,9.990034252E-2
5.791614930E0,1.910609055E1,-3.167498970E1,-1.429711580E-1
5.801614930E0,1.236012554E1,-2.674218559E1,4.695914388E-1
5.811614930E0,5.935396671E0,-2.139721870E1,1.911865234E0
5.821614930E0,1.609173268E-1,-1.624367714E1,4.844269276E0
5.831614930E0,-7.867600918E0,-9.167501450E0,8.062017441E0
5.841614930E0,-1.647099495E1,-8.255237937E-1,1.073360443E1
5.851614930E0,-2.526282310E1,7.969893932E0,1.196830082E1
5.861614930E0,-3.204049301E1,1.548993778E1,1.215075302E1
5.871614930E0,-3.786821365E1,2.251406860E1,1.301396370E1
5.881614930E0,-3.909692764E1,2.957289505E1,1.407338619E1
5.891614930E0,-3.901377869E1,3.232942581E1,1.404706573E1
5.901614930E0,-3.769114304E1,3.142793083E1,1.390768337E1
5.911614930E0,-3.450749207E1,2.811985397E1,1.253121185E1
5.921614930E0,-2.912603569E1,2.256670952E1,1.219861031E1
5.931614930E0,-2.496611404E1,1.677727509E1,1.178405285E1
5.941614930E0,-1.969053841E1,8.943773270E0,1.085922718E1
5.951614930E0,-1.506700611E1,8.027920127E-1,9.849455833E0
5.961614930E0,-1.027657509E1,-7.762316704E0,8.823533058E0
5.971614930E0,-5.891129494E0,-1.528774357E1,8.206783295E0
5.981614930E0,2.538784742E0,-2.537708092E1,5.787639618E0
5.991614930E0,1.212144089E1,-3.188256645E1,2.852244616E0
6.001614930E0,1.557368660E1,-3.592105484E1,1.188634634E0
6.011614930E0,2.191406822E1,-3.467858124E1,-6.514459848E-1
6.021614930E0,2.448934364E1,-3.354378510E1,-5.946164131E-1
6.031614930E0,2.468435860E1,-3.134777069E1,4.749752879E-1
6.041614930E0,2.102214241E1,-2.881736183E1,-1.325623751E0
6.051614930E0,1.578963852E1,-2.434936333E1,-9.900303483E-1
6.061614930E0,1.036750221E1,-1.939442635E1,-4.570291340E-1
6.071614930E0,4.653441906E0,-1.365882969E1,1.406979680E0
6.081614930E0,-5.353940725E-1,-9.046066284E0,3.915854216E0
6.091614930E0,-8.466404915E0,-3.598206997E0,6.324828625E0
6.101614930E0,-1.667976761E1,1.551147223E0,7.287939548E0
6.111614930E0,-2.123331070E1,8.237292290E0,9.805787086E0
6.121614930E0,-2.510908508E1,1.236431313E1,1.373599815E1
6.131614930E0,-2.717468834E1,1.756331825E1,1.492463303E1
6.141614930E0,-2.579402924E1,2.250509453E1,1.300439262E1
6.151614930E0,-2.383909416E1,2.354776764E1,1.308933830E1
6.161614930E0,-1.979103661E1,2.143729782E1,1.276211929E1
6.171614930E0,-1.556232071E1,1.931845284E1,1.228594780E1
6.181614930E0,-1.178644657E1,1.595235062E1,1.233679581E1
6.191614930E0,-8.882157326E0,1.278903866E1,1.255394363E1
6.201614930E0,-5.219942570E0,8.412566185E0,1.282313633E1
6.211614930E0,-2.475374937E0,4.124029636E0,1.333101273E1
6.221614930E0,-1.045065284E0,1.209571838E0,1.360259819E1
6.231614930E0,-3.888336942E-2,-1.541576028E0,1.350808239E1
6.241614930E0,9.332008660E-2,-3.279363394E0,1.280997562E1
6.251614930E0,1.875374794E0,-4.445266247E0,1.055713367E1
6.261614930E0,5.419743061E-1,-3.525225878E0,1.051047325E1
6.271614930E0,-1.226919770E0,-3.686741590E0,1.010249710E1
6.281614930E0,-2.675175667E0,-3.044268608E0,8.689535141E0
6.291614930E0,-3.077169895E0,-2.379662037E0,6.235695839E0
6.301614930E0,-2.815753937E0,-1.988435626E0,4.890929699E0
6.311614930E0,-2.077568293E0,-1.316650629E0,4.767100811E0
6.321614930E0,-1.255035520E0,-5.994020700E-1,5.161916733E0
6.331614930E0,-6.711867452E-1,2.991028363E-3,4.619942188E0
6.341614930E0,9.690931439E-2,2.548356056E-1,3.058625460E0
6.351614930E0,4.911268353E-1,1.221535921E0,3.463610888E0
6.361614930E0,3.517449200E-1,2.614158630E0,3.949951887E0
6.371614930E0,2.751746178E-1,3.779463291E0,3.349951744E0
6.381614930E0,-2.757728100E-1,4.865206718E0,3.316452265E0
6.391614930E0,-7.375875711E-1,6.066403389E0,3.147758245E0
6.401614930E0,-1.292722464E0,6.859025955E0,2.706282377E0
6.411614930E0,-2.140379906E0,7.705487251E0,2.108675003E0
6.421614930E0,-2.752942562E0,8.048258781E0,1.746760488E0
6.431614930E0,-2.444268227E0,8.271389961E0,1.819741607E0
6.441614930E0,-2.164308071E0,8.672187805E0,2.153540373E0
6.451614930E0,-2.206182480E0,9.333204269E0,2.630310297E0
6.461614930E0,-2.637488842E0,9.896116257E0,3.425325632E0
6.471614930E0,-2.979662418E0,1.036271667E1,3.719044685E0
6.481614930E0,-3.250649452E0,1.054098225E1,3.390629768E0
6.491614930E0,-3.390629768E0,1.088554859E1,2.057827473E0
6.501614930E0,-3.939184189E0,1.135394382E1,2.152942181E0
6.511614930E0,-5.443073273E0,1.324487114E1,2.309672117E0
6.521614930E0,-3.814159393E0,1.067557812E1,3.793222189E0
6.531614930E0,-3.666402578E0,1.094058323E1,4.095914364E0
6.541614930E0,-3.592823267E0,1.039920712E1,3.560520172E0
6.551614930E0,-3.624528170E0,1.039023399E1,3.803989887E0
6.561614930E0,-3.433700562E0,1.044467068E1,3.912265062E0
6.571614930E0,-3.024527788E0,1.075573826E1,4.122235298E0
6.581614930E0,-3.056830883E0,1.055115128E1,2.993421078E0
6.591614930E0,-4.268197536E0,1.162074280E1,2.763710260E0
6.601614930E0,-4.910670280E0,1.218126202E1,1.713859200E0
6.611614930E0,-3.434896946E0,1.234098244E1,8.165507317E-1
6.621614930E0,-2.374278307E0,1.178644657E1,6.430711150E-1
6.631614930E0,-1.913061738E0,1.074078274E1,1.831107497E0
6.641614930E0,-1.809572101E0,9.674181938E0,1.452443361E0
6.651614930E0,-2.467000246E0,9.608379364E0,8.033902049E-1
6.661614930E0,-2.692523718E0,9.891928673E0,3.014956415E-1
6.671614930E0,-3.081357241E0,9.385248184E0,-2.572284266E-2
6.681614930E0,-3.081357241E0,9.385248184E0,-2.572284266E-2
6.691614930E0,-2.207977057E0,7.846663475E0,1.435095429E0
6.701614930E0,-1.466800332E0,7.005586624E0,8.697910309E-1
6.711614930E0,-2.775076151E0,6.517450809E0,2.614158690E-1
6.721614930E0,-7.427321434E0,8.621339798E0,2.015953064E-1
6.731614930E0,-8.132007599E0,1.010668468E1,-1.980658889E0
6.741614930E0,-7.171887875E0,1.063729286E1,-2.063809484E-1
6.751614930E0,-5.070989609E0,1.117328548E1,1.193420291E0
6.761614930E0,-4.755734921E0,1.134676456E1,6.083751321E-1
6.771614930E0,-2.950948477E0,7.949554920E0,-5.784648657E-1
6.781614930E0,-4.457828522E0,6.220142365E0,5.168496966E-1
6.791614930E0,-6.086144447E0,7.229913712E0,-8.261220455E-1
6.801614930E0,-9.694520950E0,9.674181938E0,-8.327022791E-1
6.811614930E0,-1.110389328E1,1.078385353E1,-3.150749207E0
6.821614930E0,-6.252445698E0,7.336992264E0,-3.110071182E0
6.831614930E0,-3.416352510E0,4.710271358E0,-2.286940336E0
6.841614930E0,-2.424527645E0,3.129812002E0,-2.833700180E0
6.851614930E0,-3.223132133E0,2.237289190E0,-2.764906645E0
6.861614930E0,-5.235496044E0,2.451446772E0,-1.423729420E0
6.871614930E0,-5.876772404E0,4.283750534E0,-2.726621389E0
6.881614930E0,-5.317450047E0,5.695516109E0,-2.922234535E0
6.891614930E0,-7.491927624E0,5.876772404E0,-2.490928411E0
6.901614930E0,-1.048534870E1,3.236890793E0,-2.080559254E0
6.911614930E0,-1.090229797E1,3.111267567E0,9.320043921E-1
6.921614930E0,-1.410150242E1,-9.738788009E-1,2.227119684E0
6.931614930E0,-1.274297714E1,6.522236347E0,-8.494520187E-2
6.941614930E0,-1.197488117E1,9.891928673E0,-5.443671346E-1
6.951614930E0,-1.076112175E1,7.566703320E0,-1.186840057E0
6.961614930E0,-8.047062874E0,3.089732170E0,-1.369292736E0
6.971614930E0,-8.291728973E0,1.612762451E0,1.651047617E-1
6.981614930E0,-8.815756798E0,2.570489645E0,4.755735099E-1
6.991614930E0,-8.595019341E0,4.067798615E0,-2.667997181E-1
7.001614930E0,-8.611170769E0,2.136790514E0,-1.325025558E0
7.011614930E0,-8.690732002E0,1.751546144E0,-5.383851007E-3
7.021614930E0,-7.364510059E0,4.258625984E0,4.971089065E-1
7.031614930E0,-6.107081413E0,1.140419292E1,1.765304923E0
7.041614930E0,-5.843272686E0,1.071924686E1,4.296313286E0
7.051614930E0,-7.990232944E0,4.519443989E0,1.886740685E0
7.061614930E0,-7.550551891E0,2.959323406E0,-1.762313843E0
7.071614930E0,-6.569494724E0,1.877767563E0,4.785645381E-2
7.081614930E0,-8.151150703E0,5.210371017E-1,1.278963685E0
7.091614930E0,-1.055234814E1,-1.704886079E0,5.617151260E-1
7.101614930E0,-1.252642632E1,-4.253242016E0,-4.372883439E-1
7.111614930E0,-1.467398453E1,-4.771886349E0,-7.304090858E-1
7.121614930E0,-1.458784294E1,-2.831307411E0,4.606183618E-2
7.131614930E0,-1.284227943E1,3.547359705E-1,5.736792088E-1
7.141614930E0,-1.210170078E1,3.792623997E0,2.264208317E0
7.151614930E0,-1.090828037E1,3.903890133E0,2.185245275E0
7.161614930E0,-9.975079536E0,2.260020971E0,1.252642632E0
7.171614930E0,-1.015454102E1,7.304090858E-1,7.028916478E-1
7.181614930E0,-1.034297562E1,7.369893789E-1,2.650051117E-1
7.191614930E0,-9.134002686E0,-4.277170599E-1,-9.397810698E-1
7.201614930E0,-9.354142189E0,5.246263742E-1,-2.063809484E-1
7.211614930E0,-9.775876999E0,1.546361685E0,5.700899959E-1
7.221614930E0,-1.006122112E1,2.148156643E0,1.025324464E0
7.231614930E0,-9.971489906E0,1.631306887E0,7.806583643E-1
7.241614930E0,-9.582656860E0,1.140778184E0,2.051845491E-1
7.251614930E0,-9.534799576E0,1.054636598E0,5.383851007E-3
7.261614930E0,-9.920044899E0,1.184447169E0,-2.512463629E-1
7.271614930E0,-9.725028992E0,1.161715388E0,-4.474578202E-1
7.281614930E0,-9.592227936E0,1.119242787E0,-7.579265833E-1
7.291614930E0,-9.712467194E0,8.745766878E-1,-4.504488707E-1
7.301614930E0,-9.563513756E0,6.891329288E-1,-6.640082598E-1
7.311614930E0,-9.325428009E0,7.872386575E-1,-5.808576941E-1
7.321614930E0,-9.192028046E0,8.506484628E-1,-5.916253924E-1
7.331614930E0,-9.071788788E0,7.992027402E-1,-5.682953596E-1
7.341614930E0,-9.061619759E0,9.439685345E-1,-1.064806059E-1
7.351614930E0,-9.147162437E0,1.243669510E0,-4.372883439E-1
7.361614930E0,-8.247461319E0,6.017948985E-1,-2.268994093E0
7.371614930E0,-8.602795601E0,2.105683982E-1,-4.128815651E0
7.381614930E0,-9.324232101E0,1.393819213E0,-2.769692183E0
7.391614930E0,-1.004387283E1,3.008376360E0,-1.280160069E0
7.401614930E0,-1.060020447E1,3.419941664E0,-9.128618240E-1
7.411614930E0,-1.059541893E1,2.590828657E0,2.380858511E-1
7.421614930E0,-9.825528145E0,1.835893154E0,-1.471585929E-1
7.431614930E0,-8.934800148E0,1.826321840E0,-1.654636860E0
7.441614930E0,-9.141180992E0,1.530808330E0,-5.539384484E-1
7.451614930E0,-9.862616539E0,1.434497118E0,1.998006850E-1
7.461614930E0,-1.067976570E1,9.463613629E-1,-6.693921089E-1
7.471614930E0,-1.068215847E1,4.283152521E-1,-1.056431174E0
7.481614930E0,-9.734601021E0,2.554338276E-1,-1.165304661E0
7.491614930E0,-9.362516403E0,7.680960894E-1,-3.990031779E-1
7.501614930E0,-9.373284340E0,7.501499057E-1,1.974078715E-1
7.511614930E0,-9.266803741E0,5.641079545E-1,1.829312921E0
7.521614930E0,-9.170493126E0,7.052844763E-1,2.204387903E0
7.531614930E0,-9.449256897E0,1.088734269E0,1.778465390E0
7.541614930E0,-1.000498962E1,9.409775138E-1,4.091726840E-1
7.551614930E0,-1.113141060E1,1.068395257E0,7.657032460E-2
7.561614930E0,-1.132463169E1,1.700100541E0,8.021938205E-1
7.571614930E0,-1.097109222E1,1.499103427E0,1.274178028E0
7.581614930E0,-1.042253685E1,1.585245013E0,1.279561877E0
7.591614930E0,-1.020359421E1,1.661815286E0,3.332005441E-1
7.601614930E0,-1.088315582E1,2.224128723E0,2.428714931E-1
7.611614930E0,-1.108714390E1,2.011765718E0,2.309073806E-1
7.621614930E0,-1.032323551E1,1.189232826E0,1.182054400E0
7.631614930E0,-9.963713646E0,1.565504193E0,1.158126116E0
7.641614930E0,-9.681360245E0,8.979067206E-1,9.750752449E-1
7.651614930E0,-9.653244972E0,1.284945726E0,6.478567123E-1
7.661614930E0,-9.791430473E0,1.177866936E0,5.635097623E-1
7.671614930E0,-9.897911072E0,1.623530149E0,1.109671474E0
7.681614930E0,-9.993025780E0,1.639083505E0,2.073380709E0
7.691614930E0,-9.631709099E0,1.781456470E0,3.781856298E0
7.701614930E0,-9.260822296E0,1.711466432E0,5.020142078E0
7.711614930E0,-9.349356651E0,2.173281193E0,4.464408875E0
7.721614930E0,-9.612566948E0,2.283949137E0,3.711267948E0
7.731614930E0,-9.952945709E0,2.878565550E0,3.728017569E0
7.741614930E0,-9.934401512E0,4.174877167E0,3.312264681E0
7.751614930E0,-1.002532864E1,2.452643156E0,2.739782035E-1
7.761614930E0,-9.479166985E0,2.734996319E0,1.794616938E0
7.771614930E0,-8.303692818E0,2.644667149E0,3.371487141E0
7.781614930E0,-7.487740040E0,2.630310297E0,2.174477577E0
7.791614930E0,-7.211967468E0,2.877369165E0,2.318645239E0
7.801614930E0,-7.424330235E0,3.973282099E0,3.089133978E0
7.811614930E0,-6.404987812E0,4.103690624E0,3.539582968E0
7.821614930E0,-5.042275429E0,3.802195072E0,3.953541279E0
7.831614930E0,-4.417748928E0,3.643670797E0,5.076971531E0
7.841614930E0,-3.874577999E0,3.796811342E0,5.033900738E0
7.851614930E0,-3.183052301E0,3.300300598E0,6.559923172E0
7.861614930E0,-2.783450842E0,3.586242914E0,8.382058144E0
7.871614930E0,-2.544766903E0,3.463012457E0,9.865009308E0
7.881614930E0,-2.434098721E0,3.806382656E0,8.945567131E0
7.891614930E0,-2.945564747E0,3.931407690E0,7.402794838E0
7.901614930E0,-3.346362352E0,4.165904045E0,7.040880680E0
7.911614930E0,-4.080360889E0,4.472185612E0,7.920242786E0
7.921614930E0,-4.677370071E0,4.433301926E0,8.009973526E0
7.931614930E0,-4.440480709E0,4.816751957E0,9.111868858E0
7.941614930E0,-2.456232548E0,4.764110088E0,9.220144272E0
7.951614930E0,-1.755135417E0,4.844269276E0,9.925428391E0
7.961614930E0,-2.662015200E0,5.335994720E0,1.100997543E1
7.971614930E0,-3.072982550E0,5.861218929E0,1.023111153E1
7.981614930E0,-3.336193085E0,6.154339790E0,9.820143700E0
7.991614930E0,-3.841078520E0,6.412764549E0,7.956135273E0
8.001614930E0,-4.347160339E0,6.430112839E0,7.205985546E0
8.011614930E0,-4.514060020E0,6.640082836E0,7.686942577E0
8.021614930E0,-3.989433527E0,6.853642464E0,6.876374245E0
8.031614930E0,-2.833101988E0,6.393023968E0,7.764709473E0
8.041614930E0,-1.809572101E0,6.367300987E0,8.722436905E0
8.051614930E0,-1.559522152E0,6.689733982E0,8.665607452E0
8.061614930E0,-1.975275040E0,6.727420807E0,7.966903210E0
8.071614930E0,-2.662015200E0,7.060023308E0,7.896913052E0
8.081614930E0,-3.283550978E0,7.082755089E0,7.919644833E0
8.091614930E0,-3.759124279E0,7.139584541E0,7.625925541E0
8.101614930E0,-3.964308977E0,7.135995388E0,6.802196503E0
8.111614930E0,-3.568894863E0,7.254439831E0,6.717849731E0
8.121614930E0,-2.876770973E0,6.567699909E0,7.115057945E0
8.131614930E0,-2.301895380E0,6.157928944E0,7.467401028E0
8.141614930E0,-2.760120869E0,6.067600250E0,7.461419106E0
8.151614930E0,-2.685345173E0,6.034100533E0,7.074978352E0
8.161614930E0,-2.569293261E0,6.139384747E0,6.639484406E0
8.171614930E0,-2.490928411E0,5.862415314E0,6.545566559E0
8.181614930E0,-2.878565550E0,6.072385788E0,5.955137253E0
8.191614930E0,-3.039483070E0,6.141179085E0,5.473581791E0
8.201614930E0,-3.705285788E0,6.037689686E0,5.025525570E0
8.211614930E0,-3.780659676E0,6.552146435E0,4.406980991E0
8.221614930E0,-3.595814228E0,5.819942951E0,3.638885021E0
8.231614930E0,-1.889731646E0,4.850251675E0,1.809572101E0
8.241614930E0,-9.822536707E-1,3.669393539E0,5.443671346E-1
8.251614930E0,-2.818146944E0,4.778466702E0,5.101497650E0
8.261614930E0,-4.100699902E0,6.017949104E0,6.077171326E0
8.271614930E0,-5.467599869E0,6.439683914E0,7.746763229E0
8.281614930E0,-6.455237389E0,6.019743443E0,6.439683914E0
8.291614930E0,-5.508277893E0,6.546762943E0,4.841876507E0
8.301614930E0,-5.667998791E0,6.111268997E0,3.705883980E0
8.311614930E0,-6.028716564E0,6.001199245E0,3.069991350E0
8.321614930E0,-6.056233883E0,6.705885410E0,3.727419376E0
8.331614930E0,-6.050850391E0,6.725028038E0,3.799204111E0
8.341614930E0,-5.536991596E0,6.632904530E0,3.233899832E0
8.351614930E0,-6.121438503E0,6.669992924E0,4.820341110E0
8.361614930E0,-6.585047722E0,8.267202377E0,2.416750908E0
8.371614930E0,-6.608976364E0,8.182256699E0,1.344766378E0
8.381614930E0,-7.054639339E0,8.355736732E0,1.412961721E0
8.391614930E0,-7.086942673E0,8.365905762E0,1.741974831E0
8.401614930E0,-6.818946362E0,8.368298531E0,1.768894196E0
8.411614930E0,-7.281359196E0,7.756334782E0,1.743171334E0
8.421614930E0,-7.752147198E0,8.248059273E0,3.077169895E0
8.431614930E0,-6.851249218E0,8.702695847E0,3.416352510E0
8.441614930E0,-5.784050465E0,8.163114548E0,3.600599766E0
8.451614930E0,-4.877768993E0,7.905886173E0,4.536193371E0
8.461614930E0,-5.383252621E0,7.392027378E0,5.583053589E0
8.471614930E0,-5.629713535E0,7.775477409E0,4.908875465E0
8.481614930E0,-5.777470112E0,7.360322475E0,4.259822369E0
8.491614930E0,-5.019543648E0,7.015756130E0,3.227917671E0
8.501614930E0,-4.738387108E0,5.880959988E0,1.923829436E0
8.511614930E0,-4.551746845E0,5.388038158E0,1.096511006E0
8.521614930E0,-5.443073273E0,5.322834015E0,1.426720500E0
8.531614930E0,-6.122634888E0,5.618945599E0,1.871785522E0
8.541614930E0,-6.781259537E0,5.874977589E0,1.659422517E0
8.551614930E0,-6.422336102E0,6.097510338E0,1.197607756E0
8.561614930E0,-5.705685616E0,5.476572990E0,8.973084688E-1
8.571614930E0,-3.485146284E0,1.670848274E1,-5.034498692E0
8.581614930E0,-8.640482903E0,1.086820030E1,-1.773679733E0
8.591614930E0,-1.354636765E1,5.925227165E0,-2.709871531E-1
8.601614930E0,-8.411968231E0,8.079963684E0,5.395814896E0
8.611614930E0,-5.140979290E0,4.705485821E0,4.057030678E0
8.621614930E0,-2.770888567E0,3.908077478E0,3.453441381E0
8.631614930E0,-4.942375183E0,2.689532757E0,1.028913736E0
8.641614930E0,-8.524430275E0,4.603790760E0,1.364507079E0
8.651614930E0,-8.207381248E0,6.302694798E0,3.786641836E0
8.661614930E0,-7.537391186E0,5.347360611E0,4.009174347E0
8.671614930E0,-7.668398380E0,5.018347263E0,4.808975220E0
8.681614930E0,-7.597211838E0,5.170889854E0,4.168296814E0
8.691614930E0,-7.106683254E0,4.996811867E0,3.503690481E0
8.701614930E0,-6.403193474E0,5.188836098E0,3.178864956E0
8.711614930E0,-7.330412388E0,5.571687698E0,6.424130440E0
8.721614930E0,-7.034898758E0,7.021139622E0,7.140780926E0
8.731614930E0,-7.167101860E0,6.864409924E0,6.275177479E0
8.741614930E0,-7.396812916E0,6.451049805E0,6.327221394E0
8.751614930E0,-7.244270325E0,6.565307140E0,7.341179848E0
8.761614930E0,-7.073183537E0,6.518048763E0,7.097112179E0
8.771614930E0,-7.258029461E0,4.822733879E0,5.256433010E0
8.781614930E0,-7.674380302E0,3.346960783E0,2.551945448E0
8.791614930E0,-7.403991699E0,5.221737385E0,1.071386337E0
8.801614930E0,-7.551149845E0,5.155934811E0,2.386840582E-1
8.811614930E0,-7.417151928E0,3.999004841E0,6.041877344E-2
8.821614930E0,-7.546962738E0,3.857828379E0,-3.571287692E-1
8.831614930E0,-7.845467091E0,5.118247509E0,-3.128615618E-1
8.841614930E0,-8.184051514E0,6.235695839E0,4.307080805E-2
8.851614930E0,-8.285746574E0,6.642475605E0,5.653043389E-1
8.861614930E0,-8.141578674E0,6.651448727E0,1.622931957E0
8.871614930E0,-7.742575645E0,6.446862221E0,2.490330219E0
8.881614930E0,-7.386643410E0,6.442076683E0,2.922234535E0
8.891614930E0,-6.495915413E0,7.033103943E0,6.069394588E0
8.901614930E0,-6.358327866E0,4.735395908E0,8.828319550E0
8.911614930E0,-4.631906509E0,4.634897232E0,8.691928387E-1
8.921614930E0,-5.668596745E0,2.560320139E0,-1.813161373E0
8.931614930E0,-6.206982136E0,2.565704107E0,-3.273979664E0
8.941614930E0,-7.747361660E0,2.766701221E0,3.918247223E-1
8.951614930E0,-8.784051895E0,2.350948334E0,6.867401004E-1
8.961614930E0,-9.299705505E0,9.852447510E-1,4.247260094E-2
8.971614930E0,-9.162117958E0,1.313061476E0,4.875376225E-1
8.981614930E0,-8.596215248E0,3.271586657E0,-1.023529887E0
8.991614930E0,-8.097311974E0,6.736992359E0,1.068993568E0
9.001614930E0,-7.136593342E0,9.893125534E0,4.100699902E0
9.011614930E0,-7.121638298E0,1.170867920E1,4.792225361E0
9.021614930E0,-8.518448830E0,1.388913918E1,7.588238716E0
9.031614930E0,-7.103692055E0,1.017428207E1,5.352744102E0
9.041614930E0,-6.275177479E0,8.098507881E0,2.845664263E0
9.051614930E0,-5.844469070E0,7.090531826E0,1.992623091E0
9.061614930E0,-6.303293228E0,6.588637352E0,1.994417667E0
9.071614930E0,-7.279564857E0,6.189633846E0,1.116251707E0
9.081614930E0,-7.250850677E0,6.848258495E0,2.288734913E0
9.091614930E0,-6.706483841E0,7.088737011E0,2.541177750E0
9.101614930E0,-6.717849731E0,8.179265976E0,2.437688112E0
9.111614930E0,-9.509077072E0,5.380859852E0,1.100698411E-1
9.121614930E0,-7.855038643E0,5.416153908E0,2.285145670E-1
9.131614930E0,-7.672585964E0,6.053243160E0,-1.872383654E-1
9.141614930E0,-6.856035233E0,6.259624004E0,8.554341197E-1
9.151614930E0,-7.118049145E0,6.173482418E0,1.749751568E0
9.161614930E0,-7.884948730E0,6.030511379E0,1.068395257E0
9.171614930E0,-8.372486115E0,5.739783287E0,1.454836130E0
9.181614930E0,-8.417949677E0,5.242674351E0,3.605385542E0
9.191614930E0,-8.230113029E0,5.139184952E0,1.940579176E0
9.201614930E0,-8.518448830E0,4.003790379E0,2.346760750E0
9.211614930E0,-7.932805061E0,4.210171223E0,2.289333105E0
9.221614930E0,-7.835896015E0,4.064807415E0,3.114856958E0
9.231614930E0,-8.296514511E0,3.864408493E0,3.285943747E0
9.241614930E0,-6.777669907E0,3.270390272E0,4.693521500E0
9.251614930E0,-6.116054535E0,4.746761799E0,5.069194794E0
9.261614930E0,-7.217351437E0,4.372285366E0,3.132802963E0
9.271614930E0,-6.191428661E0,3.537189960E0,3.963112593E0
9.281614930E0,-4.472185612E0,8.451449394E0,-4.264009953E0
9.291614930E0,-1.085982513E1,8.944371223E0,-2.803789854E0
9.301614930E0,-1.166919804E1,5.956932068E0,-4.677968323E-1
9.311614930E0,-1.031246758E1,6.065805435E0,-4.241278172E-1
9.321614930E0,-9.550951958E0,5.510670662E0,5.910272002E-1
9.331614930E0,-9.256634712E0,4.721637249E0,1.458425403E0
9.341614930E0,-8.440083504E0,4.140181541E0,1.129412293E0
9.351614930E0,-8.933005333E0,3.055634499E0,1.760519266E0
9.361614930E0,-8.841479301E0,3.448655605E0,1.661217093E0
9.371614930E0,-8.102097511E0,3.957728624E0,1.490728498E0
9.381614930E0,-7.977072716E0,3.449253798E0,2.438286304E0
9.391614930E0,-8.516654015E0,3.418147087E0,1.588235974E0
9.401614930E0,-1.068335533E1,3.088535786E0,7.884350419E-1
9.411614930E0,-1.056012440E1,3.699902058E0,-1.232303679E-1
9.421614930E0,-8.986245155E0,4.107878208E0,-1.757528186E0
9.431614930E0,-9.092127800E0,4.671388149E0,-5.982056726E-3
9.441614930E0,-8.477172852E0,5.765506268E0,6.879364848E-1
9.451614930E0,-8.004590034E0,4.541577339E0,-6.741777658E-1
9.461614930E0,-8.382656097E0,3.345165968E0,-1.101894855E0
9.471614930E0,-8.106285095E0,2.750549555E0,-6.412764788E-1
9.481614930E0,-8.447261810E0,3.600599766E0,-2.069791555E-1
9.491614930E0,-7.741379261E0,4.454837322E0,7.836493850E-2
9.501614930E0,-7.287939548E0,4.230510235E0,4.875376225E-1
9.511614930E0,-6.750751019E0,4.818546772E0,1.843669891E0
9.521614930E0,-8.624331474E0,3.283550978E0,1.747358680E0
9.531614930E0,-1.119601727E1,1.907677889E0,1.115055323E0
9.541614930E0,-1.047039413E1,1.441077471E0,-2.529213428E0
9.551614930E0,-1.014616585E1,1.542174220E0,-1.592423439E0
9.561614930E0,-1.004806042E1,7.770691514E-1,-1.630110383E0
9.571614930E0,-1.007019424E1,-2.775674164E-1,-5.964110494E-1
9.581614930E0,-1.035673428E1,-2.177468538E-1,-2.212164640E0
9.591614930E0,-1.001695347E1,1.622931957E0,-4.140779495E0
9.601614930E0,-9.330811501E0,4.258625984E0,-3.344567776E0
9.611614930E0,-8.965906143E0,6.094519138E0,-3.355933666E0
9.621614930E0,-7.993224144E0,6.997809887E0,-5.624329567E0
9.631614930E0,-7.615756035E0,1.509272933E0,-3.176471949E0
9.641614930E0,-7.601399422E0,-3.212364435E0,-9.750752449E-1
9.651614930E0,-8.170292854E0,-5.015954494E0,-6.765705943E-1
9.661614930E0,-9.577870369E0,-4.456632137E0,7.633104324E-1
9.671614930E0,-1.121336555E1,-1.688136339E0,2.793620527E-1
9.681614930E0,-1.207537937E1,3.248256743E-1,-8.183453679E-1
9.691614930E0,-1.248993587E1,6.364908218E-1,-2.654238462E0
9.701614930E0,-1.145803165E1,-1.070189953E0,-4.063611031E0
9.711614930E0,-1.000917721E1,-1.085145116E0,-3.996013880E0
9.721614930E0,-9.168100357E0,8.913264424E-2,-4.553541660E0
9.731614930E0,-8.388637543E0,1.734796464E-1,-4.382454872E0
9.741614930E0,-7.707281590E0,-1.357926875E-1,-8.883354068E-1
9.751614930E0,-8.181658745E0,3.439682424E-1,-2.979064286E-1
9.761614930E0,-9.012566566E0,-4.301098585E-1,-2.371287346E0
9.771614930E0,-1.029631615E1,-1.413560033E0,1.488335729E0
9.781614930E0,-9.559326172E0,1.480558991E0,-7.199405193E0
9.791614930E0,-1.035912704E1,9.260223508E-1,-2.297109842E0
9.801614930E0,-1.190907860E1,2.160120726E0,-3.942175210E-1
9.811614930E0,-9.875777245E0,1.462014675E0,-2.151745796E0
9.821614930E0,-9.675378799E0,1.280758262E0,-2.528017044E0
9.831614930E0,-8.086544037E0,1.109671474E0,-2.464607239E0
9.841614930E0,-9.127422333E0,-2.595614433E0,-1.003789067E0
9.851614930E0,-1.109671497E1,-1.716850251E-1,1.554736495E0
9.861614930E0,-8.952746391E0,2.033899307E0,-6.291328907E0
9.871614930E0,-8.863613129E0,1.704287887E0,-2.860619545E0
9.881614930E0,-9.469595909E0,8.380861282E-1,-2.382653236E0
9.891614930E0,-9.616155624E0,1.450648785E0,-3.693321705E0
9.901614930E0,-9.388239861E0,1.389033556E0,3.029911757E0
9.911614930E0,-9.297910690E0,2.530409992E-1,-3.524029493E0
9.921614930E0,-9.568299294E0,1.535593987E0,-4.405186653E0
9.931614930E0,-9.505488396E0,1.283749342E0,-3.854837179E0
9.941614930E0,-9.281759262E0,8.338986635E-1,-3.017947674E0
9.951614930E0,-8.958727837E0,3.978067636E-1,-2.425125837E0
9.961614930E0,-8.842078209E0,4.630111754E-1,-1.916052699E0
9.971614930E0,-8.719446182E0,9.750752151E-2,-2.872583628E0
9.981614930E0,-8.942576408E0,-9.332008660E-2,-3.828516245E0
9.991614930E0,-9.299705505E0,-8.488538265E-1,-2.289931297E0
1.000161493E1,-9.693324089E0,4.785645381E-2,-3.643670797E0
1.001161493E1,-9.645467758E0,-2.542374134E-1,-4.185645103E0
1.002161493E1,-9.499505997E0,-4.510470629E-1,-3.174079180E0
1.003161493E1,-9.381061554E0,-7.585247755E-1,-3.892524242E0
1.004161493E1,-9.064012527E0,-7.860422134E-1,-4.581058979E0
1.005161493E1,-9.239884377E0,-1.390828133E0,-2.843869686E0
1.006161493E1,-9.215956688E0,-1.198205948E0,-2.502294302E0
1.007161493E1,-9.117252350E0,-1.108475089E0,-3.442673683E0
1.008161493E1,-9.740582466E0,-1.185643673E0,-3.114258766E0
1.009161493E1,-1.020837975E1,-4.785645306E-1,-1.767099500E0
1.010161493E1,-1.055354404E1,8.303094506E-1,3.756731451E-1
1.011161493E1,-1.029452133E1,5.989833355E0,1.789233088E0
1.012161493E1,-9.824331284E0,5.800800323E0,9.002995491E-1
1.013161493E1,-9.573683739E0,1.905285001E0,-2.775674164E-1
1.014161493E1,-9.543772697E0,2.614158690E-1,-1.266401410E0
1.015161493E1,-9.503094673E0,2.171486616E-1,-1.781456470E0
1.016161493E1,-9.420542717E0,3.002992272E-1,-1.434497118E0
1.017161493E1,-9.704092026E0,6.915257573E-1,-9.302098155E-1
1.018161493E1,-9.765707016E0,1.085145116E0,-1.986042857E-1
1.019161493E1,-9.421140671E0,6.532405615E-1,-1.136590727E-2
1.020161493E1,-9.538389206E0,7.980063558E-1,6.987041831E-1
1.021161493E1,-9.617950439E0,1.204187989E0,8.919246197E-1
1.022161493E1,-9.781859398E0,1.526620865E0,2.416750938E-1
1.023161493E1,-9.789037704E0,1.609771490E0,-2.606382132E0
1.024161493E1,-9.387042999E0,1.152144074E0,-3.353540897E0
1.025161493E1,-9.287740707E0,1.611566067E0,-3.638885021E0
1.026161493E1,-9.183652878E0,1.936989903E0,-2.340180635E0
1.027161493E1,-9.419944763E0,1.639681697E0,-1.582852125E0
1.028161493E1,-9.544969559E0,8.691928387E-1,-3.055036306E0
1.029161493E1,-9.418149948E0,4.725824594E-1,-3.257827997E0
1.030161493E1,-9.281160355E0,3.768695593E-1,-3.715455294E0
1.031161493E1,-8.704490662E0,-2.739782035E-1,-4.305884361E0
1.032161493E1,-8.015357971E0,-4.839483798E-1,-4.570291042E0
1.033161493E1,-8.051250458E0,2.285145670E-1,-4.633102894E0
1.034161493E1,-8.446663857E0,5.312066078E-1,-4.661218643E0
1.035161493E1,-8.882157326E0,5.892325640E-1,-4.659423828E0
1.036161493E1,-8.875576973E0,1.256231815E-1,-4.365106583E0
1.037161493E1,-9.205786705E0,-1.968096644E-1,-4.064807415E0
1.038161493E1,-9.533603668E0,-2.237289101E-1,-3.752544165E0
1.039161493E1,-9.637691498E0,2.446661144E-1,-3.622135162E0
1.040161493E1,-9.641879082E0,4.785645287E-3,-3.901497364E0
1.041161493E1,-9.572486877E0,1.854437590E-2,-4.374079704E0
1.042161493E1,-9.851848602E0,-6.245267391E-1,-4.071985722E0
1.043161493E1,-1.036510944E1,-6.711867452E-1,-3.681955814E0
1.044161493E1,-9.377471924E0,1.921436548E0,-3.798605919E0
1.045161493E1,-8.571090698E0,3.361317635E0,-3.275176048E0
1.046161493E1,-8.617751122E0,2.078166485E0,-3.527618885E0
1.047161493E1,-9.133403778E0,4.959124923E-1,-9.272187948E-1
1.048161493E1,-9.110074043E0,2.069791555E-1,1.429711580E-1
1.049161493E1,-8.740383148E0,6.999006271E-1,-4.770689964E0
1.050161493E1,-9.273384094E0,3.906283081E-1,-2.299502611E0
1.051161493E1,-9.933204651E0,-1.663011760E-1,-2.405385017E0
1.052161493E1,-8.761320114E0,-5.276173949E-1,-5.590830326E0
1.053161493E1,-9.086145401E0,-9.332008660E-2,-3.007179976E0
1.054161493E1,-9.426525116E0,4.079762697E-1,-2.336591244E0
1.055161493E1,-9.776474953E0,1.406979680E0,-3.291327477E0
1.056161493E1,-8.612366676E0,9.475577474E-1,-1.519442350E-1
1.057161493E1,-1.007198906E1,2.800798893E0,1.429711580E-1
1.058161493E1,-1.014975548E1,3.355335474E0,5.802594870E-2
1.059161493E1,-8.868997574E0,3.612564087E0,4.205385745E-1
1.060161493E1,-8.700303078E0,4.016352654E0,5.072783828E-1
1.061161493E1,-8.096714020E0,4.537988186E0,-3.530609846E0
1.062161493E1,-8.244470596E0,4.315455437E0,-3.838087559E0
1.063161493E1,-8.340183258E0,2.823530674E0,-4.851448059E0
1.064161493E1,-7.506882668E0,1.709671736E0,-5.615356445E0
1.065161493E1,-8.871390343E0,1.546361685E0,-4.542773724E0
1.066161493E1,-8.666803360E0,1.985444546E0,-3.975076675E0
1.067161493E1,-8.738588333E0,1.157527924E0,-3.643670797E0
1.068161493E1,-8.874381065E0,7.106683254E-1,-3.939782381E0
1.069161493E1,-8.968897820E0,-2.333002165E-2,-2.412563324E0
1.070161493E1,-9.181260109E0,-6.418746710E-1,-2.143969059E0
1.071161493E1,-8.950352669E0,-5.832505226E-1,-2.618346214E0
1.072161493E1,-8.872586250E0,-2.913261652E-1,-2.749353170E0
1.073161493E1,-8.907281876E0,-8.374879137E-3,-2.532204628E0
1.074161493E1,-8.907281876E0,3.738785386E-1,-2.682952404E0
1.075161493E1,-8.799007416E0,9.822536707E-1,-2.773879766E0
1.076161493E1,-8.752346992E0,1.484746456E0,-2.983251572E0
1.077161493E1,-8.751151085E0,1.834098577E0,-2.990430117E0
1.078161493E1,-8.714061737E0,1.920240164E0,-3.029911757E0
1.079161493E1,-8.713463783E0,1.896311998E0,-3.053241730E0
1.080161493E1,-8.746364594E0,1.795813441E0,-3.067000389E0
1.081161493E1,-8.812766075E0,1.790429592E0,-3.018545866E0
1.082161493E1,-9.022137642E0,1.649253011E0,-3.044866800E0
1.083161493E1,-9.221340179E0,1.475175142E0,-3.137588739E0
1.084161493E1,-9.313464165E0,1.468594909E0,-3.346960783E0
1.085161493E1,-9.353543282E0,1.506281853E0,-3.566502094E0
1.086161493E1,-9.241679192E0,1.697707653E0,-3.826123476E0
1.087161493E1,-9.089735031E0,1.698904037E0,-3.979862213E0
1.088161493E1,-9.036494255E0,1.642074585E0,-3.975076675E0
1.089161493E1,-9.011369705E0,1.556531072E0,-3.864408493E0
1.090161493E1,-9.209376335E0,1.339382529E0,-3.790230989E0
1.091161493E1,-9.270991325E0,1.266999602E0,-3.756133318E0
1.092161493E1,-9.470791817E0,1.155135155E0,-3.863212109E0
1.093161493E1,-9.689735413E0,1.119840980E0,-3.709473372E0
1.094161493E1,-9.948758125E0,1.284945726E0,-3.589832067E0
1.095161493E1,-1.002473068E1,1.532004714E0,-3.939184189E0
1.096161493E1,-1.009053326E1,1.702493310E0,-4.369294167E0
1.097161493E1,-1.006959629E1,1.754537225E0,-4.770689964E0
1.098161493E1,-1.012283611E1,1.797009826E0,-4.856233597E0
1.099161493E1,-1.053440189E1,1.936989903E0,-4.664209366E0
1.100161493E1,-1.112483025E1,1.860419631E0,-4.412364960E0
1.101161493E1,-1.198744297E1,1.752144337E0,-4.082155228E0
1.102161493E1,-1.255813122E1,1.657029629E0,-3.744169235E0
1.103161493E1,-1.254736328E1,1.768295884E0,-3.344567776E0
1.104161493E1,-1.268315601E1,2.032702923E0,-2.282154560E0
1.105161493E1,-1.237388420E1,2.566302299E0,-7.334001660E-1
1.106161493E1,-1.206461143E1,2.883351326E0,4.450650215E-1
1.107161493E1,-1.185165024E1,2.600399971E0,1.271187067E0
1.108161493E1,-1.186182022E1,1.941177368E0,1.743769526E0
1.109161493E1,-1.190489101E1,1.003190875E0,1.865803480E0
1.110161493E1,-1.200957680E1,3.601198196E-1,1.670788407E0
1.111161493E1,-1.192223835E1,-3.284149170E-1,1.527817249E0
1.112161493E1,-1.152024460E1,-8.985049129E-1,1.520040631E0
1.113161493E1,-1.127856922E1,-1.246062398E0,1.454836130E0
1.114161493E1,-1.119242764E1,-1.355534077E0,1.178465128E0
1.115161493E1,-1.129172993E1,-1.233500123E0,7.250252366E-1
1.116161493E1,-1.124387360E1,-1.018744230E0,2.697907388E-1
1.117161493E1,-1.119242764E1,-6.412764788E-1,-1.004985496E-1
1.118161493E1,-1.104287624E1,-4.444667995E-1,-4.271188378E-1
1.119161493E1,-1.067258739E1,-2.404786795E-1,-5.359922647E-1
1.120161493E1,-1.035494041E1,6.580262445E-3,-5.300102234E-1
1.121161493E1,-1.004028416E1,1.345962733E-1,-4.660021961E-1
1.122161493E1,-9.586843491E0,2.925225794E-1,-2.841476798E-1
1.123161493E1,-8.994022369E0,4.181457460E-1,-5.503492057E-2
1.124161493E1,-8.341380119E0,3.535395563E-1,2.183450609E-1
1.125161493E1,-7.900502205E0,2.811566591E-1,3.116651475E-1
1.126161493E1,-7.512865067E0,1.651047617E-1,2.291127741E-1
1.127161493E1,-7.595417500E0,1.878365725E-1,2.931207791E-2
1.128161493E1,-7.289135933E0,1.328016520E-1,-5.324030295E-2
1.129161493E1,-7.222734928E0,1.190429255E-1,-1.010967568E-1
1.130161493E1,-7.098308563E0,1.010967568E-1,-1.016949639E-1
1.131161493E1,-7.131209850E0,7.716853172E-2,-6.819544733E-2
1.132161493E1,-7.159325123E0,2.392822690E-2,-6.759724021E-2
1.133161493E1,-7.172485828E0,-8.973085321E-3,8.554340899E-2
1.134161493E1,-7.363911629E0,6.580262631E-2,1.668993831E-1
1.135161493E1,-7.568498135E0,-4.127619043E-2,1.310070455E-1
1.136161493E1,-7.635497093E0,-9.930214286E-2,8.853443712E-2
1.137161493E1,-7.719843864E0,-3.403790295E-1,-9.990034252E-2
1.138161493E1,-7.750950813E0,-6.903293133E-1,-2.542374134E-1
1.139161493E1,-7.813164234E0,-8.781659007E-1,-5.383850932E-1
1.140161493E1,-7.927421570E0,-1.008574724E0,-7.082754970E-1
1.141161493E1,-8.023134232E0,-1.192223907E0,-1.049850941E0
1.142161493E1,-8.067999840E0,-1.237089276E0,-1.549950838E0
1.143161493E1,-8.069794655E0,-1.262213945E0,-1.874178290E0
1.144161493E1,-8.033902168E0,-1.210170031E0,-2.256431818E0
1.145161493E1,-7.989036560E0,-1.129412293E0,-2.595614433E0
1.146161493E1,-8.001000404E0,-1.058225870E0,-2.925225735E0
1.147161493E1,-7.969295979E0,-9.870393276E-1,-3.121437073E0
1.148161493E1,-7.944170952E0,-8.009973764E-1,-3.437887907E0
1.149161493E1,-8.124231339E0,-5.443671346E-1,-3.620340586E0
1.150161493E1,-8.389236450E0,-3.080759048E-1,-3.572484255E0
1.151161493E1,-8.748159409E0,-2.632105052E-1,-3.575475216E0
1.152161493E1,-9.199805260E0,-9.571290761E-2,-3.707678795E0
1.153161493E1,-9.498908043E0,1.118644550E-1,-3.778865099E0
1.154161493E1,-9.744770050E0,2.955136001E-1,-3.831507206E0
1.155161493E1,-1.014257717E1,4.546363056E-1,-3.782454491E0
1.156161493E1,-1.063071251E1,5.844469070E-1,-3.675973892E0
1.157161493E1,-1.103151035E1,5.282155871E-1,-3.610769272E0
1.158161493E1,-1.131147099E1,7.453642488E-1,-3.735196114E0
1.159161493E1,-1.175593758E1,6.305087805E-1,-3.931407690E0
1.160161493E1,-1.221595764E1,3.649054468E-2,-4.291527271E0
1.161161493E1,-1.224287701E1,-8.309076428E-1,-4.694717884E0
1.162161493E1,-1.192343521E1,-1.537388563E0,-5.139782906E0
1.163161493E1,-1.106979561E1,-2.070987940E0,-5.645864964E0
1.164161493E1,-1.008275604E1,-2.255235434E0,-6.346961975E0
1.165161493E1,-9.567701340E0,-2.279761791E0,-6.683752060E0
1.166161493E1,-9.853045464E0,-1.706680775E0,-6.199803352E0
1.167161493E1,-1.132941723E1,-9.056833982E-1,-5.586642742E0
1.168161493E1,-1.277707481E1,-9.170492887E-1,-4.595416069E0
1.169161493E1,-1.317189026E1,-7.686942816E-1,-3.068196774E0
1.170161493E1,-1.361635685E1,-7.657032609E-1,-4.331009090E-1
1.171161493E1,-1.381615829E1,-1.200598717E0,2.499303341E0
1.172161493E1,-1.358046532E1,-1.317847013E0,4.258625984E0
1.173161493E1,-1.306780243E1,-1.425524116E0,5.219942570E0
1.174161493E1,-1.269452190E1,-1.517647743E0,5.084748268E0
1.175161493E1,-1.255753326E1,-1.413560033E0,4.153341770E0
1.176161493E1,-1.234277725E1,-9.882357717E-1,3.104089260E0
1.177161493E1,-1.194377422E1,-2.859423161E-1,1.188634634E0
1.178161493E1,-1.157707405E1,4.019941986E-1,-5.066801906E-1
1.179161493E1,-1.115713406E1,8.141579032E-1,-1.652244091E0
1.180161493E1,-1.073001480E1,8.745766878E-1,-2.079362869E0
1.181161493E1,-1.012223816E1,8.231309652E-1,-2.015953064E0
1.182161493E1,-9.539586067E0,6.047859192E-1,-1.669592023E0
1.183161493E1,-9.244071960E0,2.679961324E-1,-1.535593987E0
1.184161493E1,-8.906085968E0,-4.648058116E-1,-1.331605792E0
1.185161493E1,-8.634500504E0,-1.251446247E0,-1.135992527E0
1.186161493E1,-8.436494827E0,-1.847259045E0,-9.326026440E-1
1.187161493E1,-8.304290771E0,-2.065604210E0,-7.555337548E-1
1.188161493E1,-8.078767776E0,-2.106282234E0,-6.275177598E-1
1.189161493E1,-7.795217991E0,-1.773081541E0,-5.886343718E-1
1.190161493E1,-7.342974663E0,-1.606182218E0,-6.358926296E-1
1.191161493E1,-6.928418159E0,-1.497308731E0,-6.915257573E-1
1.192161493E1,-6.543173313E0,-1.287936807E0,-7.525427341E-1
1.193161493E1,-6.351747513E0,-8.602197170E-1,-8.237292171E-1
1.194161493E1,-6.267998695E0,-6.681957245E-1,-8.398807645E-1
1.195161493E1,-6.262016773E0,-2.518445849E-1,-8.434699774E-1
1.196161493E1,-6.443871498E0,1.962114573E-1,-9.457631707E-1
1.197161493E1,-6.656832695E0,4.283152521E-1,-9.559326172E-1
1.198161493E1,-6.875177860E0,8.428717852E-1,-8.859425783E-1
1.199161493E1,-7.111468792E0,1.027119160E0,-9.481559992E-1
1.200161493E1,-7.334599495E0,1.210768223E0,-1.182054400E0
1.201161493E1,-7.436294556E0,1.286142230E0,-1.334596872E0
1.202161493E1,-7.484749317E0,1.266401410E0,-1.453041553E0
1.203161493E1,-7.557730198E0,1.288534999E0,-1.691725612E0
1.204161493E1,-7.569096088E0,1.292722464E0,-1.982453585E0
1.205161493E1,-7.537391186E0,1.282552958E0,-2.258824587E0
1.206161493E1,-7.621140003E0,1.304686546E0,-2.726023197E0
1.207161493E1,-7.612765312E0,1.183848977E0,-3.140579700E0
1.208161493E1,-7.434499741E0,8.883354068E-1,-3.396611691E0
1.209161493E1,-7.467401028E0,6.867401004E-1,-3.628715515E0
1.210161493E1,-7.480561733E0,3.984049559E-1,-3.960121393E0
1.211161493E1,-7.761718273E0,2.572284266E-2,-4.442275047E0
1.212161493E1,-8.164310455E0,-1.274178028E-1,-4.915455818E0
1.213161493E1,-9.102895737E0,-7.070791125E-1,-5.382056236E0
1.214161493E1,-1.014138031E1,-1.056431174E0,-5.349753380E0
1.215161493E1,-1.134018517E1,-1.115653515E0,-5.284548759E0
1.216161493E1,-1.211366463E1,-1.185045362E0,-5.260620594E0
1.217161493E1,-1.277169132E1,-1.325623751E0,-5.193621635E0
1.218161493E1,-1.285962677E1,-1.168295622E0,-5.284548759E0
1.219161493E1,-1.244387436E1,-6.622136831E-1,-5.343770981E0
1.220161493E1,-1.179003525E1,-1.010967568E-1,-5.408975601E0
1.221161493E1,-1.098784161E1,3.607180119E-1,-5.608178139E0
1.222161493E1,-1.054816055E1,6.604190469E-1,-5.908477306E0
1.223161493E1,-1.019581699E1,5.288137794E-1,-6.381658077E0
1.224161493E1,-1.025982571E1,5.982056609E-4,-6.820741177E0
1.225161493E1,-1.138265705E1,-1.286740422E0,-6.351149559E0
1.226161493E1,-1.330887985E1,-2.497508526E0,-5.004588604E0
1.227161493E1,-1.375334644E1,-2.182254314E0,-3.526422262E0
1.228161493E1,-1.345484161E1,-8.518448472E-1,-8.243274093E-1
1.229161493E1,-1.352423382E1,3.768695593E-1,2.647658348E0
1.230161493E1,-1.313001633E1,1.244866014E0,5.571687698E0
1.231161493E1,-1.266521072E1,1.286142230E0,6.689733982E0
1.232161493E1,-1.199641609E1,1.191027522E0,6.495316982E0
1.233161493E1,-1.096690464E1,1.505085468E0,5.556732178E0
1.234161493E1,-1.061635590E1,1.721037745E0,4.499104977E0
1.235161493E1,-1.068455124E1,1.537388563E0,2.231307030E0
1.236161493E1,-1.203829098E1,1.761715651E0,-2.470589429E-1
1.237161493E1,-1.230090332E1,1.317248821E0,-2.760719061E0
1.238161493E1,-1.213101292E1,5.270192027E-1,-3.618546009E0
1.239161493E1,-1.136291695E1,-4.378865361E-1,-3.863810301E0
1.240161493E1,-1.008694363E1,-7.908278704E-1,-2.781058073E0
1.241161493E1,-9.064610481E0,-6.783652306E-1,-1.796411633E0
1.242161493E1,-8.572885513E0,-3.661018610E-1,-1.439282775E0
1.243161493E1,-8.117650986E0,1.698904037E-1,-1.121635556E0
1.244161493E1,-7.979465485E0,8.273184299E-1,-9.224331379E-1
1.245161493E1,-7.765905857E0,1.054636598E0,-7.728816867E-1
1.246161493E1,-7.441080093E0,1.173081279E0,-6.137589812E-1
1.247161493E1,-6.981658459E0,1.138983607E0,-6.161518097E-1
1.248161493E1,-6.805187702E0,1.001396298E0,-8.542376757E-1
1.249161493E1,-6.579065800E0,7.974081635E-1,-9.637092948E-1
1.250161493E1,-6.252445698E0,5.563312769E-1,-1.144965649E0
1.251161493E1,-6.141179085E0,3.942175210E-1,-1.192223907E0
1.252161493E1,-6.153143406E0,2.081755698E-1,-1.104885817E0
1.253161493E1,-6.275775433E0,1.555334684E-2,-1.074377418E0
1.254161493E1,-6.434898376E0,-3.451646566E-1,-1.118046403E0
1.255161493E1,-6.646064758E0,-7.052844763E-1,-1.009172916E0
1.256161493E1,-6.976274490E0,-1.110867858E0,-9.852447510E-1
1.257161493E1,-7.186244488E0,-1.682154298E0,-1.012762189E0
1.258161493E1,-7.314858913E0,-1.865803480E0,-1.215553880E0
1.259161493E1,-7.456633568E0,-1.705484390E0,-1.578664780E0
1.260161493E1,-7.394420147E0,-1.389631748E0,-1.843669891E0
1.261161493E1,-7.206583500E0,-1.255035520E0,-2.189432621E0
1.262161493E1,-6.884748936E0,-1.109073281E0,-2.545365095E0
1.263161493E1,-6.804589272E0,-1.118046403E0,-2.726621389E0
1.264161493E1,-7.035496712E0,-1.150349498E0,-3.083152056E0
1.265161493E1,-7.530810833E0,-1.252642632E0,-3.870988846E0
1.266161493E1,-8.059026718E0,-3.308077157E-1,-4.375276089E0
1.267161493E1,-8.284550667E0,1.112662554E-1,-4.668396950E0
1.268161493E1,-8.531010628E0,3.577269912E-1,-4.749752998E0
1.269161493E1,-8.968897820E0,2.147558331E-1,-4.669593334E0
1.270161493E1,-9.744770050E0,3.218346536E-1,-4.713860512E0
1.271161493E1,-1.057448101E1,6.059823632E-1,-4.677370071E0
1.272161493E1,-1.184267712E1,7.902296782E-1,-4.700101852E0
1.273161493E1,-1.285005569E1,5.407779217E-1,-4.897509575E0
1.274161493E1,-1.324666595E1,2.967100143E-1,-5.264808178E0
1.275161493E1,-1.308634663E1,-1.573280841E-1,-5.677569866E0
1.276161493E1,-1.230568886E1,-5.000999570E-1,-5.937191010E0
1.277161493E1,-1.182592773E1,-1.194018483E0,-5.953342915E0
1.278161493E1,-1.144247818E1,-1.161117196E0,-5.727221012E0
1.279161493E1,-1.256411362E1,-3.200400174E-1,-5.650650501E0
1.280161493E1,-1.434497166E1,3.948157430E-1,-5.822335720E0
1.281161493E1,-1.533081436E1,4.301098585E-1,-5.086542606E0
1.282161493E1,-1.553719521E1,8.374879509E-2,-3.256033421E0
1.283161493E1,-1.522074509E1,-9.152546525E-1,-3.792623878E-1
1.284161493E1,-1.378564930E1,-1.569691658E0,2.154138565E0
1.285161493E1,-1.237567902E1,-1.642672777E0,3.796213150E0
1.286161493E1,-1.108295631E1,-1.278365493E0,4.768297195E0
1.287161493E1,-1.096630573E1,-7.740781307E-1,5.112265587E0
1.288161493E1,-1.123729324E1,-9.511470199E-1,4.252045631E0
1.289161493E1,-1.156451225E1,-1.231705427E0,2.501097918E0
1.290161493E1,-1.205623722E1,-1.334596872E0,-2.853440940E-1
1.291161493E1,-1.223330593E1,-1.451845169E0,-2.295913219E0
1.292161493E1,-1.164467144E1,-1.635494232E0,-3.285345554E0
1.293161493E1,-1.086879826E1,-1.689931035E0,-3.155534744E0
1.294161493E1,-9.605986595E0,-1.446461320E0,-2.511865616E0
1.295161493E1,-8.403593063E0,-1.279561877E0,-1.752742529E0
1.296161493E1,-7.712067604E0,-1.410568953E0,-1.378864050E0
1.297161493E1,-7.345367432E0,-1.588235974E0,-1.136590719E0
1.298161493E1,-7.201199532E0,-1.591227055E0,-9.846464992E-1
1.299161493E1,-7.055237770E0,-1.331605792E0,-9.541380405E-1
1.300161493E1,-6.857231617E0,-1.042672515E0,-9.290133715E-1
1.301161493E1,-6.550950050E0,-5.946164131E-1,-9.056833982E-1
1.302161493E1,-6.324230194E0,-3.481557071E-1,-9.326026440E-1
1.303161493E1,-5.927619934E0,-3.924229145E-1,-1.054038405E0
1.304161493E1,-5.726622581E0,-4.001995921E-1,-1.088734269E0
1.305161493E1,-5.523830891E0,-1.878365725E-1,-1.134197950E0
1.306161493E1,-5.565705299E0,2.135594189E-1,-1.146760225E0
1.307161493E1,-5.784648895E0,5.700899959E-1,-1.219741344E0
1.308161493E1,-6.066403389E0,9.499505758E-1,-1.406979680E0
1.309161493E1,-6.543173313E0,1.294517040E0,-1.463809252E0
1.310161493E1,-6.875775814E0,1.563709617E0,-1.492523074E0
1.311161493E1,-7.044469833E0,1.595414519E0,-1.625324726E0
1.312161493E1,-7.125825882E0,1.546361685E0,-1.796411633E0
1.313161493E1,-7.131209850E0,1.488335729E0,-1.929213285E0
1.314161493E1,-7.116254330E0,1.320239902E0,-2.128415823E0
1.315161493E1,-6.842276573E0,1.068993568E0,-2.347358942E0
1.316161493E1,-6.723831654E0,9.302098155E-1,-2.761915445E0
1.317161493E1,-6.833901405E0,6.981059909E-1,-3.217149973E0
1.318161493E1,-6.945167542E0,5.623133183E-1,-3.625724554E0
1.319161493E1,-7.031907558E0,4.456632137E-1,-3.977469444E0
1.320161493E1,-7.289734364E0,3.038884699E-1,-4.179663181E0
1.321161493E1,-7.972885132E0,9.571290761E-2,-4.460221291E0
1.322161493E1,-8.756534576E0,-1.716850251E-1,-4.968696117E0
1.323161493E1,-9.737591743E0,-8.135597110E-1,-5.420341492E0
1.324161493E1,-1.070130062E1,-1.492523074E0,-5.347360611E0
1.325161493E1,-1.167278671E1,-1.827518344E0,-5.319842815E0
1.326161493E1,-1.279621696E1,-1.857428551E0,-5.370092392E0
1.327161493E1,-1.354517078E1,-1.573280931E0,-5.506483078E0
1.328161493E1,-1.342852020E1,-8.835497499E-1,-5.703292847E0
1.329161493E1,-1.268375492E1,9.451649338E-2,-5.872584820E0
1.330161493E1,-1.168834019E1,1.400399446E0,-5.974279881E0
1.331161493E1,-1.114995575E1,2.047059774E0,-6.025127411E0
1.332161493E1,-1.215254784E1,1.172483087E0,-5.578866005E0
1.333161493E1,-1.411944866E1,1.016949639E-1,-5.248656273E0
1.334161493E1,-1.536551094E1,-4.648058116E-1,-5.112864017E0
1.335161493E1,-1.520878029E1,-1.902294010E-1,-3.079562664E0
1.336161493E1,-1.463629818E1,7.088736892E-1,7.178468257E-2
1.337161493E1,-1.370010567E1,1.803590059E0,3.663411379E0
1.338161493E1,-1.240917778E1,2.075773716E0,5.952744484E0
1.339161493E1,-1.192762280E1,1.531406522E0,6.549753666E0
1.340161493E1,-1.203290653E1,8.213363886E-1,6.050251961E0
1.341161493E1,-1.257966709E1,3.110669367E-2,4.338187218E0
1.342161493E1,-1.325743389E1,-8.255238086E-2,1.691127419E0
1.343161493E1,-1.362712479E1,-9.930213690E-1,-1.094118118E0
1.344161493E1,-1.360858059E1,-1.733001828E0,-2.495115757E0
1.345161493E1,-1.308335590E1,-2.190030813E0,-3.415754318E0
1.346161493E1,-1.190967655E1,-1.901097536E0,-3.338585854E0
1.347161493E1,-1.045125103E1,-1.579262972E0,-2.687139750E0
1.348161493E1,-9.144769669E0,-7.944171429E-1,-1.885544300E0
1.349161493E1,-8.624331474E0,1.220339537E-1,-1.204187989E0
1.350161493E1,-8.606983185E0,9.314061999E-1,-9.864411354E-1
1.351161493E1,-8.624929428E0,1.362114310E0,-9.128618240E-1
1.352161493E1,-8.413763046E0,1.775474429E0,-8.458628058E-1
1.353161493E1,-7.758129120E0,1.623530149E0,-9.631111026E-1
1.354161493E1,-7.006783009E0,1.328614831E0,-1.361516118E0
1.355161493E1,-6.484549522E0,1.136590719E0,-1.496710539E0
1.356161493E1,-5.879165173E0,7.118647099E-1,-1.601994753E0
1.357161493E1,-5.195415974E0,3.505485058E-1,-1.354935765E0
1.358161493E1,-4.791627407E0,1.872383654E-1,-1.222732425E0
1.359161493E1,-4.708476543E0,3.469592705E-2,-1.179063320E0
1.360161493E1,-4.712664127E0,-4.666004330E-2,-1.231107235E0
1.361161493E1,-4.945964336E0,-1.399801224E-1,-1.223928809E0
1.362161493E1,-5.270191669E0,-2.769692242E-1,-1.259222865E0
1.363161493E1,-5.826523304E0,-6.029912829E-1,-1.305882931E0
1.364161493E1,-6.440282345E0,-1.383649707E0,-1.277169108E0
1.365161493E1,-6.766304016E0,-1.841875196E0,-1.390828133E0
1.366161493E1,-7.013363361E0,-2.021935225E0,-1.511665702E0
1.367161493E1,-7.153343201E0,-2.023729801E0,-1.716252089E0
1.368161493E1,-7.150352478E0,-1.986042738E0,-2.007578135E0
1.369161493E1,-6.862017155E0,-1.888535261E0,-2.362912416E0
1.370161493E1,-6.378068924E0,-1.779661894E0,-2.895913601E0
1.371161493E1,-6.259026051E0,-1.454237938E0,-3.275774240E0
1.372161493E1,-6.593422890E0,-1.142572761E0,-3.519842148E0
1.373161493E1,-7.184450150E0,-1.019940615E0,-3.908077478E0
1.374161493E1,-8.017750740E0,-8.291130662E-1,-4.701298237E0
1.375161493E1,-8.645866394E0,-4.683950245E-1,-5.372485161E0
1.376161493E1,-9.102297783E0,3.888336942E-2,-5.688337803E0
1.377161493E1,-9.840482712E0,7.154539824E-1,-5.799005508E0
1.378161493E1,-1.083709335E1,1.060618639E0,-5.590231895E0
1.379161493E1,-1.205743313E1,1.298106313E0,-5.446662426E0
1.380161493E1,-1.296550941E1,8.398807645E-1,-5.390431404E0
1.381161493E1,-1.368574905E1,1.339980662E-1,-5.514259815E0
1.382161493E1,-1.359183121E1,-7.890332937E-1,-5.684150219E0
1.383161493E1,-1.282672596E1,-1.877767563E0,-5.794219971E0
1.384161493E1,-1.208913803E1,-2.459223509E0,-5.703890800E0
1.385161493E1,-1.192283726E1,-2.179263115E0,-5.358726501E0
1.386161493E1,-1.333460236E1,-1.188634634E0,-5.691926956E0
1.387161493E1,-1.443649769E1,-6.933203340E-1,-6.084948063E0
1.388161493E1,-1.492762375E1,-4.761717021E-1,-5.530411243E0
1.389161493E1,-1.501197147E1,-8.440681696E-1,-3.171088219E0
1.390161493E1,-1.440479279E1,-1.372283816E0,-6.430711150E-1
1.391161493E1,-1.341715431E1,-1.524826288E0,1.417149186E0
1.392161493E1,-1.200120163E1,-1.525424480E0,3.388236761E0
1.393161493E1,-1.134257793E1,-1.363908887E0,4.313062668E0
1.394161493E1,-1.050030422E1,-4.265206456E-1,4.476971149E0
1.395161493E1,-1.056371403E1,7.908278704E-1,3.686143398E0
1.396161493E1,-1.110030460E1,9.583254457E-1,2.032702923E0
1.397161493E1,-1.170628643E1,5.826523304E-1,-2.255235314E-1
1.398161493E1,-1.205264759E1,4.366901219E-1,-1.729412556E0
1.399161493E1,-1.197727394E1,2.333002165E-2,-2.675773859E0
1.400161493E1,-1.114696407E1,-7.621139884E-1,-2.531606436E0
1.401161493E1,-9.982855797E0,-1.208973646E0,-1.991426587E0
1.402161493E1,-9.103493690E0,-1.429113269E0,-1.537388563E0
1.403161493E1,-8.185846329E0,-1.721037745E0,-1.130608678E0
1.404161493E1,-7.588837147E0,-1.968096614E0,-7.938188910E-1
1.405161493E1,-7.420143127E0,-2.003988981E0,-6.562315822E-1
1.406161493E1,-7.287939548E0,-1.825723648E0,-6.011967063E-1
1.407161493E1,-7.073183537E0,-1.345364571E0,-6.729813814E-1
1.408161493E1,-6.826723099E0,-6.927221417E-1,-8.177471161E-1
1.409161493E1,-6.590431690E0,-4.223332107E-1,-8.877372146E-1
1.410161493E1,-6.249454498E0,-1.950150430E-1,-9.720842242E-1
1.411161493E1,-5.997011662E0,-1.016949639E-1,-1.074975610E0
1.412161493E1,-5.807978630E0,1.974078640E-2,-1.158126116E0
1.413161493E1,-5.806782246E0,1.495514158E-2,-9.858429432E-1
1.414161493E1,-6.194419384E0,1.890329868E-1,-7.992027402E-1
1.415161493E1,-6.488138676E0,3.870390654E-1,-8.039883971E-1
1.416161493E1,-6.774679184E0,7.429714203E-1,-9.714859724E-1
1.417161493E1,-6.889534473E0,1.100100160E0,-1.317248821E0
1.418161493E1,-6.935596466E0,1.280758262E0,-1.523629785E0
1.419161493E1,-6.980462074E0,1.346560955E0,-1.690529227E0
1.420161493E1,-6.894320011E0,1.342971683E0,-1.743171334E0
1.421161493E1,-6.754938126E0,1.166501045E0,-1.881356835E0
1.422161493E1,-6.601199627E0,9.714859724E-1,-2.100300074E0
1.423161493E1,-6.445067883E0,1.005583763E0,-2.353939295E0
1.424161493E1,-6.518647194E0,9.948160052E-1,-2.654238462E0
1.425161493E1,-6.886543751E0,7.124629617E-1,-3.150151014E0
1.426161493E1,-7.312466145E0,5.156532526E-1,-3.575475216E0
1.427161493E1,-7.651648521E0,3.637090325E-1,-3.800998688E0
1.428161493E1,-8.136793137E0,5.682953820E-2,-3.953541279E0
1.429161493E1,-8.895915985E0,-2.572284341E-1,-4.351946354E0
1.430161493E1,-9.893125534E0,-6.747759581E-1,-4.795814991E0
1.431161493E1,-1.074018478E1,-1.070788145E0,-4.792225361E0
1.432161493E1,-1.197308636E1,-1.048654556E0,-4.632504463E0
1.433161493E1,-1.313539982E1,-9.302098155E-1,-4.578666210E0
1.434161493E1,-1.387717533E1,-7.842476368E-1,-4.537389755E0
1.435161493E1,-1.383589840E1,-6.161518097E-1,-4.486542225E0
1.436161493E1,-1.319342613E1,4.007977992E-2,-4.805386066E0
1.437161493E1,-1.193779182E1,9.409775138E-1,-5.215754986E0
1.438161493E1,-1.114516926E1,1.345364571E0,-5.467001438E0
1.439161493E1,-1.092921734E1,1.126421213E0,-5.785845280E0
1.440161493E1,-1.246660614E1,-7.537391037E-2,-5.762515068E0
1.441161493E1,-1.454237938E1,-8.554341197E-1,-5.601597786E0
1.442161493E1,-1.497966766E1,-1.096511006E0,-4.800600529E0
1.443161493E1,-1.435932827E1,-9.254241586E-1,-1.958525300E0
1.444161493E1,-1.348594856E1,1.369891018E-1,2.239681959E0
1.445161493E1,-1.276989651E1,6.358926296E-1,5.632106304E0
1.446161493E1,-1.239900875E1,5.515456200E-1,6.846463680E0
1.447161493E1,-1.260239887E1,2.769692242E-1,6.821339130E0
1.448161493E1,-1.307079411E1,2.410768867E-1,5.855835438E0
1.449161493E1,-1.326939774E1,7.238288522E-1,4.408775806E0
1.450161493E1,-1.395254898E1,9.966106415E-1,1.530210137E0
1.451161493E1,-1.407278824E1,6.299105883E-1,-1.046859860E0
1.452161493E1,-1.335673618E1,2.398804724E-1,-2.807977438E0
1.453161493E1,-1.235773277E1,-1.160518974E-1,-3.388236761E0
1.454161493E1,-1.052782154E1,-3.942175210E-1,-3.139383316E0
1.455161493E1,-8.995817184E0,-2.392822653E-1,-2.525026083E0
1.456161493E1,-8.088936806E0,2.159522474E-1,-1.899302959E0
1.457161493E1,-7.802994728E0,5.258227587E-1,-1.545763373E0
1.458161493E1,-7.610970497E0,6.388836503E-1,-1.133001566E0
1.459161493E1,-7.596015453E0,8.123632669E-1,-7.573283911E-1
1.460161493E1,-7.312466145E0,7.914260626E-1,-5.539384484E-1
1.461161493E1,-6.819544315E0,7.196413875E-1,-5.276173949E-1
1.462161493E1,-6.424130440E0,8.045865893E-1,-5.832505226E-1
1.463161493E1,-6.098108292E0,7.118647099E-1,-5.796613097E-1
1.464161493E1,-5.796014786E0,6.239284873E-1,-6.000002623E-1
1.465161493E1,-5.556732178E0,5.784648657E-1,-5.629115105E-1
1.466161493E1,-5.536393166E0,4.785645306E-1,-5.718846321E-1
1.467161493E1,-5.559723377E0,3.631108403E-1,-5.994020700E-1
1.468161493E1,-5.656632900E0,-8.315058798E-2,-7.716853023E-1
1.469161493E1,-5.944369793E0,-5.599204898E-1,-9.332008362E-1
1.470161493E1,-6.250052929E0,-1.133001566E0,-1.022333503E0
1.471161493E1,-6.433701992E0,-1.875972986E0,-9.296116233E-1
1.472161493E1,-6.463612080E0,-2.389233351E0,-1.197607756E0
1.473161493E1,-6.464808464E0,-2.413759947E0,-1.545165181E0
1.474161493E1,-6.441478729E0,-2.084148407E0,-1.848455548E0
1.475161493E1,-6.430710793E0,-1.778465390E0,-1.965703845E0
1.476161493E1,-6.764509678E0,-1.518844128E0,-2.251646042E0
1.477161493E1,-7.292127132E0,-1.200598717E0,-2.923431158E0
1.478161493E1,-7.525427341E0,-8.027920127E-1,-3.754936934E0
1.479161493E1,-7.661818027E0,-5.910272002E-1,-4.757529736E0
1.480161493E1,-7.578667641E0,-4.331009090E-1,-5.078765869E0
1.481161493E1,-7.858627796E0,-1.441675574E-1,-5.002793789E0
1.482161493E1,-8.494520187E0,3.427718580E-1,-5.093122959E0
1.483161493E1,-9.589835167E0,9.014959335E-1,-5.096114159E0
1.484161493E1,-1.127378368E1,1.584048629E0,-5.043471813E0
1.485161493E1,-1.280997562E1,1.412363529E0,-4.813760757E0
1.486161493E1,-1.345603848E1,1.129412293E0,-4.559523582E0
1.487161493E1,-1.404945850E1,7.698906660E-1,-4.462614059E0
1.488161493E1,-1.380479240E1,-9.032905847E-2,-4.896313190E0
1.489161493E1,-1.291944790E1,-8.823533654E-1,-5.239085197E0
1.490161493E1,-1.144187927E1,-1.572084427E0,-5.471189022E0
1.491161493E1,-1.081017494E1,-2.121237278E0,-5.489733219E0
1.492161493E1,-1.174337578E1,-1.240678549E0,-5.786443233E0
1.493161493E1,-1.318265820E1,-3.463610709E-1,-6.142375946E0
1.494161493E1,-1.440778351E1,1.268195957E-1,-5.576473236E0
1.495161493E1,-1.483131313E1,-5.401797295E-1,-2.826521635E0
1.496161493E1,-1.443470287E1,-1.178465128E0,4.001995921E-1
1.497161493E1,-1.348714447E1,-1.339980721E0,2.976073265E0
1.498161493E1,-1.231286716E1,-1.375274777E0,5.196014404E0
1.499161493E1,-1.193779182E1,-6.179464459E-1,6.123233318E0
1.500161493E1,-1.231765270E1,3.774677813E-1,5.726622581E0
1.501161493E1,-1.278305721E1,1.249651670E0,4.282554150E0
1.502161493E1,-1.273400402E1,5.982056609E-4,2.345564365E0
1.503161493E1,-1.254856014E1,-6.634100676E-1,1.130608693E-1
1.504161493E1,-1.211127186E1,-1.131805062E0,-1.178465128E0
1.505161493E1,-1.115952682E1,-1.810170293E0,-2.299502611E0
1.506161493E1,-9.988240242E0,-2.169093609E0,-2.952144861E0
1.507161493E1,-8.698508263E0,-2.248056889E0,-3.245265722E0
1.508161493E1,-7.786843300E0,-2.062014818E0,-3.156731367E0
1.509161493E1,-6.985247612E0,-1.791027784E0,-2.973082066E0
1.510161493E1,-6.614958286E0,-1.394417405E0,-2.696711063E0
1.511161493E1,-6.429514408E0,-1.162313581E0,-2.452044964E0
1.512161493E1,-6.224329948E0,-9.296116233E-1,-2.135594130E0
1.513161493E1,-6.196812630E0,-6.508477330E-1,-1.822732687E0
1.514161493E1,-6.072983742E0,-4.049852192E-1,-1.453639746E0
1.515161493E1,-6.064010620E0,-2.608176768E-1,-1.292722464E0
1.516161493E1,-6.177670002E0,-2.566302419E-1,-1.167697430E0
1.517161493E1,-6.316453457E0,-2.871387303E-1,-1.204786181E0
1.518161493E1,-6.469594002E0,-3.128615618E-1,-1.318445325E0
1.519161493E1,-6.653243542E0,-1.758724600E-1,-1.427916884E0
1.520161493E1,-6.835097790E0,2.093719840E-1,-1.644467354E0
1.521161493E1,-7.023532867E0,7.525427341E-1,-1.924427629E0
1.522161493E1,-7.013961315E0,1.115653515E0,-2.108076811E0
1.523161493E1,-7.064210415E0,1.349551916E0,-2.243271112E0
1.524161493E1,-7.083353043E0,1.301097274E0,-2.276172638E0
1.525161493E1,-7.000202656E0,1.028913736E0,-2.384447813E0
1.526161493E1,-6.839883327E0,7.818548083E-1,-2.407179594E0
1.527161493E1,-6.732206345E0,4.570291340E-1,-2.495713949E0
1.528161493E1,-6.759724140E0,2.315055877E-1,-2.651247501E0
1.529161493E1,-6.854838848E0,7.657032460E-2,-2.897708178E0
1.530161493E1,-7.250850677E0,-1.525424421E-1,-3.184248686E0
1.531161493E1,-7.567301750E0,-2.715853751E-1,-3.549154282E0
1.532161493E1,-7.873582840E0,-2.650051117E-1,-3.637688637E0
1.533161493E1,-8.185846329E0,-2.063809484E-1,-3.779463291E0
1.534161493E1,-8.660821915E0,-3.750749528E-1,-4.399802685E0
1.535161493E1,-9.109476089E0,-6.915257573E-1,-4.814359188E0
1.536161493E1,-9.792626381E0,-1.113858938E0,-4.625924587E0
1.537161493E1,-1.081316566E1,-1.266999602E0,-4.470989227E0
1.538161493E1,-1.231167030E1,-1.261017561E0,-4.061218262E0
1.539161493E1,-1.350688553E1,-1.171884894E0,-3.954737663E0
1.540161493E1,-1.403091335E1,-1.076770186E0,-4.271786690E0
1.541161493E1,-1.357209015E1,-5.048855543E-1,-5.032704353E0
1.542161493E1,-1.240558910E1,2.901297510E-1,-5.322235584E0
1.543161493E1,-1.137607670E1,1.060618639E0,-5.434698582E0
1.544161493E1,-1.109551907E1,1.173081279E0,-5.461019516E0
1.545161493E1,-1.255932808E1,4.372883439E-1,-5.265406132E0
1.546161493E1,-1.434856129E1,-1.866401732E-1,-4.829912663E0
1.547161493E1,-1.447358608E1,-8.781659007E-1,-3.574278831E0
1.548161493E1,-1.340100288E1,-5.551348329E-1,-9.224331379E-1
1.549161493E1,-1.221835041E1,6.281159073E-2,2.328216314E0
1.550161493E1,-1.137846947E1,1.304088384E-1,4.783252239E0
1.551161493E1,-1.121874905E1,-1.004985496E-1,5.580660820E0
1.552161493E1,-1.173200989E1,-3.852444589E-1,4.822733879E0
1.553161493E1,-1.220219898E1,2.033899277E-1,2.932404041E0
1.554161493E1,-1.272024536E1,1.226321578E0,8.344969153E-1
1.555161493E1,-1.360678577E1,1.907079697E0,-9.493523836E-1
1.556161493E1,-1.362652683E1,1.697707653E0,-2.373680115E0
1.557161493E1,-1.315992641E1,1.011565804E0,-3.005385160E0
1.558161493E1,-1.220578861E1,1.058823988E-1,-3.175873756E0
1.559161493E1,-1.113440228E1,-3.427718580E-1,-3.055036306E0
1.560161493E1,-9.866804123E0,-4.259224236E-1,-2.976073265E0
1.561161493E1,-9.124430656E0,-8.913264424E-2,-3.020938635E0
1.562161493E1,-8.840881348E0,2.871387303E-1,-2.939582586E0
1.563161493E1,-8.394021988E0,7.082754970E-1,-2.669193745E0
1.564161493E1,-7.810771465E0,9.355936646E-1,-2.245065928E0
1.565161493E1,-7.139584541E0,8.757730722E-1,-1.910070658E0
1.566161493E1,-6.683752060E0,8.470591903E-1,-1.683350682E0
1.567161493E1,-6.357729912E0,8.219345808E-1,-1.532602906E0
1.568161493E1,-5.998208046E0,7.106683254E-1,-1.548156261E0
1.569161493E1,-5.854638577E0,6.783652306E-1,-1.563111424E0
1.570161493E1,-5.780461311E0,5.455635786E-1,-1.371685624E0
1.571161493E1,-5.865406513E0,5.018945336E-1,-1.289731383E0
1.572161493E1,-6.031109333E0,3.044866920E-1,-1.263410330E0
1.573161493E1,-6.234499454E0,4.845465720E-2,-1.393819213E0
1.574161493E1,-6.477969170E0,-5.090730190E-1,-1.445264935E0
1.575161493E1,-6.637690067E0,-1.280758262E0,-1.395613790E0
1.576161493E1,-6.524629116E0,-2.097907305E0,-1.375872970E0
1.577161493E1,-6.455835342E0,-2.375474691E0,-1.478764415E0
1.578161493E1,-6.341578007E0,-2.441875458E0,-1.750947952E0
1.579161493E1,-6.267998695E0,-2.385046005E0,-2.137987137E0
1.580161493E1,-6.193821430E0,-2.356332064E0,-2.491526604E0
1.581161493E1,-6.178866386E0,-2.190030813E0,-2.960519791E0
1.582161493E1,-6.233303070E0,-1.828116536E0,-3.559323788E0
1.583161493E1,-6.760920525E0,-1.346560955E0,-3.998406649E0
1.584161493E1,-7.164111137E0,-1.001994491E0,-4.480560303E0
1.585161493E1,-7.508677483E0,-7.968099117E-1,-5.147559643E0
1.586161493E1,-7.716254711E0,-3.499503136E-1,-5.583651543E0
1.587161493E1,-8.011170387E0,3.260220885E-1,-5.821139336E0
1.588161493E1,-8.532207489E0,8.907282352E-1,-5.745765209E0
1.589161493E1,-9.659226418E0,1.010369420E0,-5.358726501E0
1.590161493E1,-1.100818062E1,6.861419082E-1,-5.276174068E0
1.591161493E1,-1.201496029E1,-3.649054468E-2,-5.283950806E0
1.592161493E1,-1.303131199E1,-7.686942816E-1,-5.410770416E0
1.593161493E1,-1.336750412E1,-1.270588875E0,-5.714658737E0
1.594161493E1,-1.264786243E1,-1.671386600E0,-5.944967747E0
1.595161493E1,-1.168415260E1,-2.039881229E0,-6.019145489E0
1.596161493E1,-1.117268753E1,-1.828714728E0,-5.627918720E0
1.597161493E1,-1.225304699E1,-8.099704385E-1,-5.596213818E0
1.598161493E1,-1.403928852E1,-3.020938635E-1,-6.185446739E0
1.599161493E1,-1.490967751E1,2.093719877E-2,-5.715256691E0
1.600161493E1,-1.499163246E1,-1.794616925E-3,-3.201596737E0
1.601161493E1,-1.453340626E1,-5.778666735E-1,-1.854437590E-2
1.602161493E1,-1.387896919E1,-8.147560954E-1,2.120639086E0
1.603161493E1,-1.265623760E1,-6.257231236E-1,4.038486481E0
1.604161493E1,-1.223749352E1,-5.718846321E-1,4.679164886E0
1.605161493E1,-1.217169094E1,-8.374879509E-2,4.479962349E0
1.606161493E1,-1.237986660E1,6.436693072E-1,3.564707518E0
1.607161493E1,-1.252223873E1,1.070788130E-1,1.871785522E0
1.608161493E1,-1.239721394E1,-5.958128572E-1,-1.411765367E-1
1.609161493E1,-1.212682533E1,-1.190429211E0,-1.540379524E0
1.610161493E1,-1.165603733E1,-1.756929994E0,-2.158325911E0
1.611161493E1,-1.068036366E1,-2.016551256E0,-2.443670034E0
1.612161493E1,-9.396016121E0,-1.788634896E0,-2.319841623E0
1.613161493E1,-8.620741844E0,-1.770688772E0,-2.095514536E0
1.614161493E1,-7.695317745E0,-1.938784599E0,-1.947159410E0
1.615161493E1,-7.292127132E0,-1.948355794E0,-1.653440475E0
1.616161493E1,-7.115656376E0,-1.807179332E0,-1.441077471E0
1.617161493E1,-6.892525673E0,-1.584646821E0,-1.305882931E0
1.618161493E1,-6.555137634E0,-1.337587833E0,-1.209571838E0
1.619161493E1,-6.333203316E0,-1.028913736E0,-1.156331539E0
1.620161493E1,-6.300302029E0,-9.086744189E-1,-1.142572761E0
1.621161493E1,-6.108876228E0,-9.403793216E-1,-1.105484009E0
1.622161493E1,-5.972485542E0,-7.812566161E-1,-1.212562919E0
1.623161493E1,-6.028118610E0,-4.564309120E-1,-1.229312658E0
1.624161493E1,-6.022136211E0,-5.443671346E-2,-1.203589797E0
1.625161493E1,-6.246463299E0,3.738785386E-1,-1.243669510E0
1.626161493E1,-6.504888535E0,9.601200819E-1,-1.160519004E0
1.627161493E1,-6.681957245E0,1.451246977E0,-1.130010486E0
1.628161493E1,-6.918248653E0,1.678565025E0,-1.164108157E0
1.629161493E1,-7.077371120E0,1.719841242E0,-1.272981644E0
1.630161493E1,-7.219145775E0,1.541576028E0,-1.342373490E0
1.631161493E1,-7.302894592E0,1.253240824E0,-1.420738459E0
1.632161493E1,-7.223333359E0,7.992027402E-1,-1.632503271E0
1.633161493E1,-7.214958668E0,7.262216806E-1,-1.980060697E0
1.634161493E1,-7.312466145E0,6.957131624E-1,-2.456232548E0
1.635161493E1,-7.500900745E0,6.687939167E-1,-2.831307411E0
1.636161493E1,-7.727022648E0,5.503492355E-1,-3.287140131E0
1.637161493E1,-7.923233986E0,3.517449200E-1,-3.680161238E0
1.638161493E1,-8.005785942E0,-1.477568001E-1,-3.942773581E0
1.639161493E1,-8.288737297E0,-6.436693072E-1,-4.133002758E0
1.640161493E1,-8.946166039E0,-1.134796143E0,-4.554139614E0
1.641161493E1,-9.834501266E0,-1.875972986E0,-4.886742115E0
1.642161493E1,-1.059601688E1,-2.175075769E0,-4.841876507E0
1.643161493E1,-1.176670551E1,-2.282154560E0,-4.910071850E0
1.644161493E1,-1.266162109E1,-2.166102648E0,-4.910670280E0
1.645161493E1,-1.287039471E1,-1.636690736E0,-4.651049137E0
1.646161493E1,-1.256112289E1,-9.200403094E-1,-4.496113777E0
1.647161493E1,-1.185583782E1,3.649054468E-1,-4.386641979E0
1.648161493E1,-1.134497070E1,1.389033556E0,-4.392624378E0
1.649161493E1,-1.208794212E1,1.262812138E0,-4.144368649E0
1.650161493E1,-1.400997639E1,4.360919297E-1,-3.945166349E0
1.651161493E1,-1.585663700E1,-3.756731451E-1,-3.889533281E0
1.652161493E1,-1.578365612E1,-9.661021233E-1,-2.946162939E0
1.653161493E1,-1.468116379E1,-5.760720372E-1,-7.668996453E-1
1.654161493E1,-1.337946796E1,7.226324677E-1,2.654238462E0
1.655161493E1,-1.243131161E1,1.389033556E0,5.061418056E0
1.656161493E1,-1.170209885E1,1.110867858E0,5.946164131E0
1.657161493E1,-1.138265705E1,6.400800347E-1,5.809773445E0
1.658161493E1,-1.169312572E1,3.846462369E-1,4.482953072E0
1.659161493E1,-1.281117249E1,4.731806815E-1,2.180459738E0
1.660161493E1,-1.445683575E1,5.748756528E-1,-6.191428304E-1
1.661161493E1,-1.472842121E1,5.563312769E-2,-2.249253273E0
1.662161493E1,-1.381615829E1,-8.183453679E-1,-3.059223652E0
1.663161493E1,-1.211426258E1,-1.145563841E0,-2.637488842E0
1.664161493E1,-1.059482002E1,-1.172483087E0,-1.987837434E0
1.665161493E1,-9.105288506E0,-7.549355626E-1,-1.523031592E0
1.666161493E1,-8.175676346E0,8.195417374E-2,-1.411167145E0
1.667161493E1,-7.829914093E0,9.661021233E-1,-1.338784218E0
1.668161493E1,-7.681559086E0,1.460818172E0,-1.271785259E0
1.669161493E1,-7.585247993E0,1.433300734E0,-1.177268744E0
1.670161493E1,-7.254439831E0,1.292722464E0,-1.197009563E0
1.671161493E1,-7.068397999E0,9.451649189E-1,-1.104885817E0
1.672161493E1,-6.608976364E0,4.426721931E-1,-9.894321561E-1
1.673161493E1,-6.293721676E0,2.991028316E-2,-8.973084688E-1
1.674161493E1,-5.938985825E0,-3.828516230E-2,-7.752745152E-1
1.675161493E1,-5.801996708E0,-3.337987661E-1,-7.208378315E-1
1.676161493E1,-5.709274769E0,-5.575276613E-1,-7.483552694E-1
1.677161493E1,-5.730212212E0,-8.829515576E-1,-7.651050687E-1
1.678161493E1,-5.874379635E0,-1.344168067E0,-8.847461939E-1
1.679161493E1,-6.047859192E0,-1.719243050E0,-9.571290612E-1
1.680161493E1,-6.372086525E0,-1.919043779E0,-1.149153113E0
1.681161493E1,-6.644868374E0,-1.936391711E0,-1.275972724E0
1.682161493E1,-6.774679184E0,-1.952543259E0,-1.384846091E0
1.683161493E1,-6.749554634E0,-1.747358680E0,-1.663011789E0
1.684161493E1,-6.677769661E0,-1.417149186E0,-1.923829436E0
1.685161493E1,-6.510870457E0,-1.487737536E0,-2.219941139E0
1.686161493E1,-6.379265308E0,-1.502094388E0,-2.587837696E0
1.687161493E1,-6.321837425E0,-1.330409408E0,-3.123231649E0
1.688161493E1,-6.447460651E0,-1.017547846E0,-3.702294827E0
1.689161493E1,-6.776473522E0,-8.542376757E-1,-4.231108665E0
1.690161493E1,-7.256833076E0,-1.842473447E-1,-4.295116425E0
1.691161493E1,-7.782057285E0,1.734796464E-1,-4.447659016E0
1.692161493E1,-8.370093346E0,-3.678964674E-1,-4.554139614E0
1.693161493E1,-9.007183075E0,-6.753742099E-1,-4.466801643E0
1.694161493E1,-9.869196892E0,-5.066801906E-1,-4.496711731E0
1.695161493E1,-1.088016415E1,-1.716850251E-1,-4.335794449E0
1.696161493E1,-1.200957680E1,-2.392822690E-2,-4.263411522E0
1.697161493E1,-1.275613785E1,-3.170489892E-2,-4.473381996E0
1.698161493E1,-1.329691505E1,2.823530734E-1,-4.959125042E0
1.699161493E1,-1.321496105E1,-1.914258115E-2,-5.348556995E0
1.700161493E1,-1.242174053E1,-1.237687469E0,-5.734997749E0
1.701161493E1,-1.153520012E1,-1.670788407E0,-6.132804394E0
1.702161493E1,-1.051944637E1,-2.140379906E0,-6.544968128E0
1.703161493E1,-1.020479012E1,-1.649851203E0,-6.698707104E0
1.704161493E1,-1.091306591E1,-4.498506486E-1,-6.417550564E0
1.705161493E1,-1.291825104E1,9.912267923E-1,-6.044867992E0
1.706161493E1,-1.420858097E1,5.150550604E-1,-4.216153622E0
1.707161493E1,-1.401177120E1,-4.905286431E-1,-1.462612867E0
1.708161493E1,-1.379043484E1,-9.517452121E-1,6.047859192E-1
1.709161493E1,-1.357567883E1,-9.529415965E-1,3.121437073E0
1.710161493E1,-1.360379505E1,-5.419743061E-1,4.840082169E0
1.711161493E1,-1.404826164E1,-2.817548811E-1,5.303092957E0
1.712161493E1,-1.459262848E1,-3.780659735E-1,5.240281582E0
1.713161493E1,-1.469193077E1,-1.269990563E0,4.789832592E0
1.714161493E1,-1.416969776E1,-2.004587173E0,3.729214191E0
1.715161493E1,-1.356072426E1,-2.050648928E0,2.180459738E0
1.716161493E1,-1.238824081E1,-2.012363911E0,-1.351944804E-1
1.717161493E1,-1.084008503E1,-2.054836512E0,-2.051247120E0
1.718161493E1,-9.297910690E0,-1.874776483E0,-2.872583628E0
1.719161493E1,-8.196015358E0,-1.639681697E0,-2.871387243E0
1.720161493E1,-7.083951473E0,-1.255035520E0,-2.547159672E0
1.721161493E1,-6.435496330E0,-9.517452121E-1,-2.343769789E0
1.722161493E1,-6.177670002E0,-8.386843204E-1,-2.155334949E0
1.723161493E1,-6.118447304E0,-8.614161611E-1,-1.902294040E0
1.724161493E1,-6.092724800E0,-9.272187948E-1,-1.668395638E0
1.725161493E1,-6.135197163E0,-7.447660565E-1,-1.255035520E0
1.726161493E1,-6.177071571E0,-7.256234884E-1,-9.684949517E-1
1.727161493E1,-6.312864304E0,-8.165507317E-1,-5.952146053E-1
1.728161493E1,-6.463612080E0,-8.751748800E-1,-3.505485058E-1
1.729161493E1,-6.444469452E0,-8.171489239E-1,-2.081755698E-1
1.730161493E1,-6.498308182E0,-7.220342159E-1,-2.751746178E-1
1.731161493E1,-6.698707104E0,-4.857429862E-1,-6.334998012E-1
1.732161493E1,-6.853044033E0,-5.742774159E-2,-9.984052777E-1
1.733161493E1,-6.936792850E0,4.671986103E-1,-1.416550994E0
1.734161493E1,-7.089335442E0,1.240080357E0,-1.693520188E0
1.735161493E1,-7.237690449E0,1.716850281E0,-1.853839397E0
1.736161493E1,-7.363911629E0,1.854437590E0,-1.939980984E0
1.737161493E1,-7.477570534E0,1.719243050E0,-2.018944025E0
1.738161493E1,-7.365706444E0,1.447059512E0,-2.079961061E0
1.739161493E1,-7.253243446E0,1.079162955E0,-2.340180635E0
1.740161493E1,-7.240681171E0,1.001396298E0,-2.721237659E0
1.741161493E1,-7.218547821E0,1.010369420E0,-3.059821844E0
1.742161493E1,-7.223931789E0,8.327022791E-1,-3.497110367E0
1.743161493E1,-7.243073940E0,7.118647099E-1,-3.744169235E0
1.744161493E1,-7.481160164E0,5.276173949E-1,-3.851248026E0
1.745161493E1,-8.100900650E0,2.051845491E-1,-4.092923164E0
1.746161493E1,-9.012566566E0,-1.728814393E-1,-4.546961308E0
1.747161493E1,-1.002831936E1,-6.723831892E-1,-5.009374142E0
1.748161493E1,-1.080897808E1,-1.009771109E0,-4.992624283E0
1.749161493E1,-1.168355465E1,-1.362114310E0,-4.765306473E0
1.750161493E1,-1.241097260E1,-1.621735573E0,-4.424927235E0
1.751161493E1,-1.290867996E1,-1.381855130E0,-4.113860130E0
1.752161493E1,-1.296491146E1,-1.367498159E0,-3.927818298E0
1.753161493E1,-1.259462166E1,-8.003991842E-1,-4.287340164E0
1.754161493E1,-1.177089310E1,-1.136590764E-1,-4.517050743E0
1.755161493E1,-1.117926693E1,4.325026870E-1,-4.658227444E0
1.756161493E1,-1.086640549E1,6.699903607E-1,-4.733003139E0
1.757161493E1,-1.199103260E1,-1.591227055E-1,-4.653441906E0
1.758161493E1,-1.421635723E1,-1.366899967E0,-4.659423828E0
1.759161493E1,-1.455912971E1,-1.852642894E0,-4.400999069E0
1.760161493E1,-1.393639755E1,-1.536192179E0,-2.690130949E0
1.761161493E1,-1.282253838E1,-2.297109663E-1,5.455635786E-1
1.762161493E1,-1.200658607E1,6.616154313E-1,3.600599766E0
1.763161493E1,-1.159621716E1,9.948160052E-1,4.992624283E0
1.764161493E1,-1.166560841E1,9.948160052E-1,5.336592674E0
1.765161493E1,-1.191984558E1,1.196411371E0,4.664209366E0
1.766161493E1,-1.222852039E1,1.218544960E0,3.325425386E0
1.767161493E1,-1.338844109E1,1.211366415E0,1.009771109E0
1.768161493E1,-1.401476192E1,9.170492887E-1,-1.254437327E0
1.769161493E1,-1.354038525E1,5.623133108E-2,-2.642872572E0
1.770161493E1,-1.259701443E1,-4.241278172E-1,-3.102892876E0
1.771161493E1,-1.095673466E1,-8.141579032E-1,-2.861217737E0
1.772161493E1,-9.218349457E0,-7.962117195E-1,-2.233101845E0
1.773161493E1,-8.353941917E0,-5.377869010E-1,-1.887338877E0
1.774161493E1,-7.925626755E0,2.177468538E-1,-1.809572101E0
1.775161493E1,-7.786843300E0,7.501499057E-1,-1.719243050E0
1.776161493E1,-7.722835064E0,1.138983607E0,-1.527219057E0
1.777161493E1,-7.401598454E0,1.128215909E0,-1.299900889E0
1.778161493E1,-6.934998035E0,9.846464992E-1,-1.110867858E0
1.779161493E1,-6.579065800E0,7.393822074E-1,-1.044467092E0
1.780161493E1,-6.044867992E0,4.384847581E-1,-9.828519225E-1
1.781161493E1,-5.775077343E0,1.537388563E-1,-1.068395257E0
1.782161493E1,-5.572884083E0,-1.196411345E-2,-1.153938770E0
1.783161493E1,-5.581857204E0,-5.503492057E-2,-1.091725349E0
1.784161493E1,-5.748157978E0,-1.088734269E-1,-1.018744230E0
1.785161493E1,-5.991627693E0,-1.639083475E-1,-9.930213690E-1
1.786161493E1,-6.390631199E0,-3.780659735E-1,-9.942178130E-1
1.787161493E1,-6.957729816E0,-1.077368379E0,-9.804590940E-1
1.788161493E1,-7.156932354E0,-1.753939033E0,-1.040877819E0
1.789161493E1,-7.279564857E0,-2.100898266E0,-1.294517040E0
1.790161493E1,-7.194021225E0,-2.191825628E0,-1.633101463E0
1.791161493E1,-7.033702374E0,-2.128415823E0,-1.882553220E0
1.792161493E1,-6.832705021E0,-1.835294962E0,-2.191227436E0
1.793161493E1,-6.743572235E0,-1.835893154E0,-2.559123755E0
1.794161493E1,-6.818347931E0,-1.856830359E0,-3.068794966E0
1.795161493E1,-6.831508636E0,-1.724028707E0,-3.518047571E0
1.796161493E1,-6.929614544E0,-1.314856052E0,-4.150351048E0
1.797161493E1,-7.179664135E0,-7.818548083E-1,-4.367499352E0
1.798161493E1,-7.552346706E0,-4.660021961E-1,-4.625326157E0
1.799161493E1,-7.965108395E0,-2.979064286E-1,-4.714458942E0
1.800161493E1,-8.548956871E0,-2.410768867E-1,-4.692325115E0
1.801161493E1,-9.436694145E0,4.821537733E-1,-4.887938499E0
1.802161493E1,-1.066181946E1,5.994020700E-1,-5.005784988E0
1.803161493E1,-1.155793190E1,3.804588020E-1,-4.913063049E0
1.804161493E1,-1.264726448E1,-8.913264424E-2,-4.821537495E0
1.805161493E1,-1.343629742E1,-6.329016089E-1,-4.936991215E0
1.806161493E1,-1.365404415E1,-1.052243710E0,-5.261219025E0
1.807161493E1,-1.322812176E1,-1.790429592E0,-5.630311489E0
1.808161493E1,-1.218844032E1,-2.130210400E0,-5.786443233E0
1.809161493E1,-1.185523987E1,-1.781456470E0,-5.390431404E0
1.810161493E1,-1.257727432E1,-1.084546804E0,-5.091328144E0
1.811161493E1,-1.400878048E1,-5.868397355E-1,-5.458626747E0
1.812161493E1,-1.491685677E1,-7.280163169E-1,-4.841876507E0
1.813161493E1,-1.533081436E1,-9.332008362E-1,-3.116053343E0
1.814161493E1,-1.507538128E1,-1.292722464E0,-7.304090858E-1
1.815161493E1,-1.378804207E1,-1.475175142E0,1.858026743E0
1.816161493E1,-1.252881908E1,-1.485942841E0,4.006183147E0
1.817161493E1,-1.197488117E1,-1.396810174E0,4.965705395E0
1.818161493E1,-1.198325539E1,-8.991031051E-1,5.129015446E0
1.819161493E1,-1.205384445E1,-7.782655358E-1,3.830909014E0
1.820161493E1,-1.182592773E1,-7.579265833E-1,1.755135417E0
1.821161493E1,-1.157767200E1,-6.687939167E-1,1.220339537E-1
1.822161493E1,-1.118106174E1,-6.885347366E-1,-1.635494232E0
1.823161493E1,-1.052004433E1,-9.152546525E-1,-2.720041037E0
1.824161493E1,-9.879366875E0,-1.153938770E0,-3.050848961E0
1.825161493E1,-9.019146919E0,-9.726824164E-1,-2.833700180E0
1.826161493E1,-8.342576027E0,-8.644071817E-1,-2.151745796E0
1.827161493E1,-7.817351341E0,-1.039681435E0,-1.676172256E0
1.828161493E1,-7.585845947E0,-1.151545882E0,-1.429113269E0
1.829161493E1,-7.482356548E0,-1.168893814E0,-9.858429432E-1
1.830161493E1,-7.371688366E0,-1.056431174E0,-5.868397355E-1
1.831161493E1,-7.141977310E0,-9.098708034E-1,-3.128615618E-1
1.832161493E1,-7.047461033E0,-8.183453679E-1,-3.427718580E-1
1.833161493E1,-6.892525673E0,-5.778666735E-1,-3.882354796E-1
1.834161493E1,-6.692126751E0,-5.904290080E-1,-4.749752879E-1
1.835161493E1,-6.573681831E0,-5.371887088E-1,-6.478567123E-1
1.836161493E1,-6.493522644E0,-4.552344978E-1,-7.112665176E-1
1.837161493E1,-6.452844620E0,-4.271188378E-1,-1.079162955E0
1.838161493E1,-6.495316982E0,-1.645065546E-1,-1.319043517E0
1.839161493E1,-6.494120598E0,1.411765367E-1,-1.450050473E0
1.840161493E1,-6.399005890E0,6.969096065E-1,-1.473978758E0
1.841161493E1,-6.522834301E0,1.116850019E0,-1.505085468E0
1.842161493E1,-6.713063717E0,1.435693622E0,-1.601994753E0
1.843161493E1,-6.862017155E0,1.496112347E0,-1.725225091E0
1.844161493E1,-7.029514790E0,1.436890006E0,-1.819741607E0
1.845161493E1,-7.236494064E0,1.013360381E0,-1.962712765E0
1.846161493E1,-7.338787079E0,6.484549642E-1,-2.112264156E0
1.847161493E1,-7.444071293E0,5.222335458E-1,-2.272583246E0
1.848161493E1,-7.610970497E0,2.464607358E-1,-2.789433002E0
1.849161493E1,-7.763513088E0,-2.811566554E-2,-3.125026464E0
1.850161493E1,-7.892127514E0,-2.021935135E-1,-3.323032379E0
1.851161493E1,-8.111070633E0,-4.157529473E-1,-3.549154282E0
1.852161493E1,-8.496912956E0,-6.831508875E-1,-3.830909014E0
1.853161493E1,-9.082556725E0,-1.216152072E0,-4.290929317E0
1.854161493E1,-9.706484795E0,-1.576870084E0,-4.555934429E0
1.855161493E1,-1.062413216E1,-1.710868239E0,-4.778466702E0
1.856161493E1,-1.147298622E1,-1.451246977E0,-4.884947300E0
1.857161493E1,-1.180259800E1,-1.004985452E0,-4.943571568E0
1.858161493E1,-1.196590805E1,-9.972088337E-1,-4.976472855E0
1.859161493E1,-1.160040379E1,-7.639086246E-1,-5.085346222E0
1.860161493E1,-1.105783176E1,-1.034895778E-1,-5.174479008E0
1.861161493E1,-1.065643597E1,3.834498227E-1,-5.209175110E0
1.862161493E1,-1.090528965E1,8.973085135E-2,-4.914857864E0
1.863161493E1,-1.283390427E1,-9.996016622E-1,-4.627718925E0
1.864161493E1,-1.482832146E1,-1.822732687E0,-4.576273441E0
1.865161493E1,-1.559641838E1,-2.014756680E0,-3.830909014E0
1.866161493E1,-1.580160236E1,-1.196411371E0,-1.332203984E0
1.867161493E1,-1.492882061E1,2.650051117E-1,1.722832322E0
1.868161493E1,-1.393400478E1,8.973084688E-1,3.872185230E0
1.869161493E1,-1.276750374E1,1.180259824E0,5.231906891E0
1.870161493E1,-1.234397411E1,9.068797827E-1,5.288736343E0
1.871161493E1,-1.242473125E1,6.155536175E-1,3.979862213E0
1.872161493E1,-1.293500137E1,4.767699242E-1,2.267199516E0
1.873161493E1,-1.377428341E1,4.145565331E-1,-2.069791555E-1
1.874161493E1,-1.385504150E1,-1.316052526E-1,-1.962114573E0
1.875161493E1,-1.329332638E1,-6.921239495E-1,-2.428714991E0
1.876161493E1,-1.222134209E1,-8.590233326E-1,-2.481357098E0
1.877161493E1,-1.077547836E1,-8.632107973E-1,-2.075175524E0
1.878161493E1,-9.443274498E0,-5.096712112E-1,-1.709073544E0
1.879161493E1,-8.737990379E0,-9.032905847E-2,-1.368096352E0
1.880161493E1,-8.343772888E0,4.115654826E-1,-1.012163997E0
1.881161493E1,-8.210970879E0,9.678967595E-1,-1.040877819E0
1.882161493E1,-7.968099594E0,1.094716311E0,-1.024128079E0
1.883161493E1,-7.593024254E0,9.266205430E-1,-9.206385016E-1
1.884161493E1,-7.145566463E0,6.723831892E-1,-7.776673436E-1
1.885161493E1,-6.914061069E0,5.557330847E-1,-5.635097623E-1
1.886161493E1,-6.643671989E0,3.720839322E-1,-4.348955154E-1
1.887161493E1,-6.321837425E0,1.351944804E-1,-6.023930907E-1
1.888161493E1,-6.041877270E0,1.082752272E-1,-9.469595551E-1
1.889161493E1,-5.923432350E0,5.623133108E-2,-1.309472203E0
1.890161493E1,-5.885147095E0,-8.315058798E-2,-1.552343726E0
1.891161493E1,-5.930611134E0,-3.948157430E-1,-1.668993831E0
1.892161493E1,-5.903093338E0,-7.674978375E-1,-1.585245013E0
1.893161493E1,-5.994618893E0,-1.088734269E0,-1.486541033E0
1.894161493E1,-6.139384747E0,-1.429711580E0,-1.397408366E0
1.895161493E1,-6.223731518E0,-1.689332843E0,-1.547558069E0
1.896161493E1,-6.218945980E0,-1.756331801E0,-1.742573142E0
1.897161493E1,-6.172883987E0,-1.660618901E0,-1.853241086E0
1.898161493E1,-6.180062771E0,-1.479362607E0,-1.935195327E0
1.899161493E1,-6.306882381E0,-1.390229940E0,-2.236092806E0
1.900161493E1,-6.500700951E0,-1.350150228E0,-2.673979282E0
1.901161493E1,-6.673582554E0,-1.371685624E0,-2.920439959E0
1.902161493E1,-7.008577347E0,-1.461416483E0,-3.113660574E0
1.903161493E1,-7.477570534E0,-1.423131227E0,-3.177668571E0
1.904161493E1,-8.020741463E0,-1.261615753E0,-3.371487141E0
1.905161493E1,-8.517850876E0,-1.271187067E0,-3.401397467E0
1.906161493E1,-9.125627518E0,-1.133001566E0,-3.346362352E0
1.907161493E1,-9.939785004E0,-6.053841114E-1,-3.541377544E0
1.908161493E1,-1.071147060E1,-1.555334684E-2,-3.817748547E0
1.909161493E1,-1.177627659E1,3.332005441E-1,-3.804588079E0
1.910161493E1,-1.287039471E1,2.697907388E-1,-3.854837179E0
1.911161493E1,-1.340519047E1,3.499503136E-1,-4.434498787E0
1.912161493E1,-1.333520031E1,3.637090325E-1,-4.811367989E0
1.913161493E1,-1.234636688E1,7.776673418E-3,-5.511268616E0
1.914161493E1,-1.120857906E1,-7.387840152E-1,-5.907878876E0
1.915161493E1,-1.059302616E1,-1.028913736E0,-5.714060307E0
1.916161493E1,-1.107518005E1,-1.343569875E0,-5.303092957E0
1.917161493E1,-1.318505096E1,-1.256231904E0,-4.609174728E0
1.918161493E1,-1.485942841E1,-1.749751568E0,-4.070789337E0
1.919161493E1,-1.530628872E1,-1.986042738E0,-3.117249727E0
1.920161493E1,-1.504666710E1,-2.612962246E0,-4.241278172E-1
1.921161493E1,-1.388913918E1,-3.000599623E0,2.547757864E0
1.922161493E1,-1.283210945E1,-2.941975355E0,4.567898273E0
1.923161493E1,-1.239541912E1,-2.773879766E0,5.174479008E0
1.924161493E1,-1.241695499E1,-2.162513494E0,4.859822750E0
1.925161493E1,-1.264128208E1,-1.632503271E0,3.254837036E0
1.926161493E1,-1.260120201E1,-1.205384374E0,1.734796405E0
1.927161493E1,-1.223749352E1,-9.254241586E-1,-3.254238665E-1
1.928161493E1,-1.172782230E1,-6.759724021E-1,-1.942373753E0
1.929161493E1,-1.089153004E1,-5.599204898E-1,-2.730210543E0
1.930161493E1,-1.015573788E1,-6.149554253E-1,-2.819941521E0
1.931161493E1,-9.269196510E0,-6.251249313E-1,-2.505883455E0
1.932161493E1,-8.525627136E0,-6.071787477E-1,-1.975873351E0
1.933161493E1,-8.085946083E0,-8.165507317E-1,-1.462014675E0
1.934161493E1,-7.886145115E0,-9.954141974E-1,-1.042074203E0
1.935161493E1,-7.786244869E0,-1.223330617E0,-6.305087805E-1
1.936161493E1,-7.740781307E0,-1.317847013E0,-3.296113312E-1
1.937161493E1,-7.607979774E0,-1.497308731E0,-4.785645287E-3
1.938161493E1,-7.401000500E0,-1.494915962E0,2.656033039E-1
1.939161493E1,-7.238288403E0,-1.445264935E0,3.786641955E-1
1.940161493E1,-7.096513748E0,-1.386640668E0,2.344966233E-1
1.941161493E1,-6.993024349E0,-1.271187067E0,8.973085135E-2
1.942161493E1,-7.010970116E0,-1.032503009E0,-1.268195957E-1
1.943161493E1,-7.093522549E0,-5.222335458E-1,-3.828516304E-1
1.944161493E1,-7.123433113E0,5.623133108E-2,-4.773681164E-1
1.945161493E1,-7.156932354E0,5.102694035E-1,-5.282155871E-1
1.946161493E1,-7.296314240E0,1.064207911E0,-5.796613097E-1
1.947161493E1,-7.371688366E0,1.494317770E0,-5.204389095E-1
1.948161493E1,-7.465008259E0,1.713261008E0,-5.359922647E-1
1.949161493E1,-7.744968891E0,1.629512191E0,-3.667000830E-1
1.950161493E1,-8.040482521E0,1.512263894E0,-3.403790295E-1
1.951161493E1,-8.156534195E0,1.447657704E0,-7.250252366E-1
1.952161493E1,-8.177471161E0,1.341177106E0,-1.215553880E0
1.953161493E1,-8.218149185E0,1.219143152E0,-1.948953986E0
1.954161493E1,-8.317451477E0,8.488538265E-1,-2.336591244E0
1.955161493E1,-8.559724808E0,4.049852192E-1,-2.885145903E0
1.956161493E1,-8.624929428E0,-8.374879137E-3,-3.310470104E0
1.957161493E1,-8.578269005E0,-6.167500615E-1,-3.697509289E0
1.958161493E1,-8.458029747E0,-9.086744189E-1,-4.063013077E0
1.959161493E1,-8.569893837E0,-7.471588850E-1,-4.220939159E0
1.960161493E1,-8.962317467E0,-3.595215976E-1,-4.450650215E0
1.961161493E1,-9.665208817E0,-4.432703853E-1,-4.660022259E0
1.962161493E1,-1.033579731E1,-9.379864931E-1,-4.838287354E0
1.963161493E1,-1.082991505E1,-1.249053478E0,-4.856831551E0
1.964161493E1,-1.152622700E1,-1.221535921E0,-4.600201607E0
1.965161493E1,-1.187318611E1,-8.033902049E-1,-4.386641979E0
1.966161493E1,-1.173619652E1,-6.005984545E-1,-4.322035789E0
1.967161493E1,-1.133599758E1,-4.582255483E-1,-4.306482315E0
1.968161493E1,-1.099980545E1,-5.503492355E-1,-4.117449760E0
1.969161493E1,-1.187378407E1,-1.255633712E0,-3.534198999E0
1.970161493E1,-1.328375530E1,-1.785643935E0,-3.483949661E0
1.971161493E1,-1.469731522E1,-2.664407969E0,-3.077768087E0
1.972161493E1,-1.526441383E1,-2.659622431E0,-9.900303483E-1
1.973161493E1,-1.502991676E1,-1.474576950E0,1.112064362E0
1.974161493E1,-1.450110340E1,-9.535398483E-1,2.650051117E0
1.975161493E1,-1.351526070E1,-6.143572330E-1,4.291527271E0
1.976161493E1,-1.253719425E1,-4.881358147E-1,5.138586521E0
1.977161493E1,-1.184985638E1,-4.869394004E-1,4.938786030E0
1.978161493E1,-1.160399342E1,-4.157529473E-1,3.629911900E0
1.979161493E1,-1.218485069E1,-4.271188378E-1,1.396810174E0
1.980161493E1,-1.274955750E1,-5.479564071E-1,-6.400800347E-1
1.981161493E1,-1.300738430E1,-7.501499057E-1,-1.800599098E0
1.982161493E1,-1.250728416E1,-1.320239902E0,-2.257030010E0
1.983161493E1,-1.125763226E1,-1.838884234E0,-1.969292998E0
1.984161493E1,-9.920044899E0,-1.436890006E0,-1.355534077E0
1.985161493E1,-9.101100922E0,-8.440681696E-1,-9.170492887E-1
1.986161493E1,-8.538188934E0,-3.409772366E-2,-5.688936114E-1
1.987161493E1,-8.275577545E0,5.623133183E-1,-4.079762697E-1
1.988161493E1,-8.113463402E0,7.848458290E-1,-1.818545163E-1
1.989161493E1,-7.783253670E0,8.171489239E-1,1.136590727E-2
1.990161493E1,-7.375875950E0,7.537391186E-1,7.657032460E-2
1.991161493E1,-6.905087948E0,3.942175210E-1,-8.554340899E-2
1.992161493E1,-6.509075642E0,-9.511470050E-2,-2.560320199E-1
1.993161493E1,-6.185446739E0,-5.228317380E-1,-3.978067636E-1
1.994161493E1,-5.886343479E0,-9.032905698E-1,-5.778666735E-1
1.995161493E1,-5.663212776E0,-1.375872970E0,-7.710871100E-1
1.996161493E1,-5.666802406E0,-1.576870084E0,-9.218349457E-1
1.997161493E1,-5.770890236E0,-1.712064624E0,-1.010967612E0
1.998161493E1,-6.104688644E0,-1.782054663E0,-9.415757060E-1
1.999161493E1,-6.352345943E0,-1.827518344E0,-8.536394835E-1
2.000161493E1,-6.908677101E0,-1.579262972E0,-7.477570772E-1
2.001161493E1,-7.445267677E0,-1.406979680E0,-6.789634228E-1
2.002161493E1,-7.906484127E0,-1.215553880E0,-7.441678643E-1
2.003161493E1,-8.170890808E0,-1.122832060E0,-9.391828775E-1
2.004161493E1,-8.145766258E0,-1.013360381E0,-1.335793257E0
2.005161493E1,-7.951349735E0,-9.978070259E-1,-1.670788407E0
2.006161493E1,-7.609176159E0,-1.014556766E0,-2.006979942E0
2.007161493E1,-7.416553974E0,-1.257428288E0,-2.206182480E0
2.008161493E1,-7.285546780E0,-1.634896040E0,-2.485544443E0
2.009161493E1,-7.527820110E0,-1.494915962E0,-2.861815929E0
2.010161493E1,-8.021339417E0,-1.156331539E0,-3.338585854E0
2.011161493E1,-8.829515457E0,-4.426721931E-1,-3.887738705E0
2.012161493E1,-9.684949875E0,3.230310678E-1,-4.298706055E0
2.013161493E1,-1.043150997E1,8.470591903E-1,-4.360321045E0
2.014161493E1,-1.095493984E1,1.148554921E0,-4.316651821E0
2.015161493E1,-1.152024460E1,1.166501045E0,-4.513461590E0
2.016161493E1,-1.188275719E1,8.321040869E-1,-4.909473896E0
2.017161493E1,-1.216331577E1,-3.194418252E-1,-4.970490932E0
2.018161493E1,-1.209392357E1,-1.122832060E0,-5.065007210E0
2.019161493E1,-1.182652569E1,-1.656431437E0,-5.167300701E0
2.020161493E1,-1.138863945E1,-2.030908108E0,-5.267200947E0
2.021161493E1,-1.090828037E1,-2.318645239E0,-5.434698582E0
2.022161493E1,-1.081077290E1,-2.446661234E0,-5.295914650E0
2.023161493E1,-1.175234795E1,-2.710469961E0,-3.914657831E0
2.024161493E1,-1.307857037E1,-2.733799934E0,-2.618944407E0
2.025161493E1,-1.391605854E1,-2.011765718E0,-1.508674622E0
2.026161493E1,-1.465065479E1,-1.462612867E0,5.802595019E-1
2.027161493E1,-1.509512138E1,-1.368694544E0,3.400799274E0
2.028161493E1,-1.533141327E1,-1.170090318E0,5.160720348E0
2.029161493E1,-1.534158230E1,-7.764709592E-1,5.743970871E0
2.030161493E1,-1.501496220E1,-6.544370055E-1,5.364708424E0
2.031161493E1,-1.408235931E1,-7.824530005E-1,4.305884361E0
2.032161493E1,-1.285424328E1,-9.750752449E-1,3.112463951E0
2.033161493E1,-1.158544922E1,-9.786644578E-1,7.728816867E-1
2.034161493E1,-1.052961636E1,-7.830511928E-1,-1.604985833E0
2.035161493E1,-9.600603104E0,-3.619144261E-1,-3.182454109E0
2.036161493E1,-9.117252350E0,-1.429711580E-1,-3.540181160E0
2.037161493E1,-8.758329391E0,9.571290575E-3,-3.152543783E0
2.038161493E1,-8.535796165E0,-2.781656384E-1,-2.383849621E0
2.039161493E1,-8.279764175E0,-7.094719410E-1,-1.719243050E0
2.040161493E1,-8.109275818E0,-1.146162033E0,-1.087537885E0
2.041161493E1,-7.996214867E0,-1.722832322E0,-5.922235847E-1
2.042161493E1,-7.814360619E0,-2.055434704E0,-2.380858511E-1
2.043161493E1,-7.649854183E0,-2.139183521E0,-1.142572835E-1
2.044161493E1,-7.349554539E0,-2.073979139E0,-6.879365444E-2
2.045161493E1,-6.942774773E0,-1.687538147E0,-1.788634956E-1
2.046161493E1,-6.611967087E0,-1.350150228E0,-3.074777126E-1
2.047161493E1,-6.342774391E0,-1.108475089E0,-4.396811724E-1
2.048161493E1,-6.156134605E0,-7.244270444E-1,-6.825526357E-1
2.049161493E1,-6.140581131E0,-4.618147612E-1,-8.464609981E-1
2.050161493E1,-6.157330990E0,-2.416750938E-1,-9.104689956E-1
2.051161493E1,-6.285346985E0,1.734796464E-1,-7.788637877E-1
2.052161493E1,-6.647859573E0,6.149554253E-1,-7.471588850E-1
2.053161493E1,-6.927221775E0,8.135597110E-1,-7.704889178E-1
2.054161493E1,-7.166503906E0,8.494520187E-1,-8.410771489E-1
