"time","gyro_x","gyro_y","gyro_z"
1.000200268E1,1.797471046E-1,-2.038762718E-1,-2.351831272E-2
1.001200268E1,-5.650503561E-3,-3.581197560E-1,-6.872233935E-3
1.002200268E1,-5.894849449E-2,-3.932445049E-1,1.175915636E-2
1.003200268E1,-6.475171447E-2,-5.311473012E-1,5.955936015E-2
1.004200268E1,-6.047565863E-2,-8.335255980E-1,1.186605766E-1
1.005200269E1,5.787948146E-2,-9.526443481E-1,2.318233550E-1
1.006200269E1,2.953533530E-1,-9.563095570E-1,3.750712574E-1
1.007200269E1,4.150829315E-1,-1.151633739E0,4.859432876E-1
1.008200268E1,4.983133376E-1,-1.303586483E0,5.945246220E-1
1.009200268E1,5.216789246E-1,-1.327562928E0,6.505714655E-1
1.010200268E1,4.182899892E-1,-1.113607287E0,6.676757336E-1
1.011200268E1,1.365283877E-1,-6.007859707E-1,4.616613984E-1
1.012200268E1,-1.740965992E-2,-3.071125150E-1,8.338310570E-2
1.013200268E1,5.253441259E-2,-2.211332172E-1,2.076941915E-2
1.014200269E1,1.707368344E-1,-1.647808999E-1,1.117883399E-1
1.015200269E1,1.795943826E-1,-1.719585657E-1,1.716531366E-1
1.016200269E1,1.456913650E-1,-1.731802970E-1,1.985312104E-1
1.017200268E1,1.287398487E-1,-1.429424733E-1,2.021963894E-1
1.018200268E1,1.319468915E-1,-3.054326214E-2,1.568396538E-1
1.019200268E1,2.277000248E-1,1.427897513E-1,1.488984078E-1
1.020200268E1,3.320052624E-1,3.197879493E-1,1.666134894E-1
1.021200268E1,4.337143302E-1,6.140722632E-1,1.632537395E-1
1.022200269E1,5.146539807E-1,8.781188130E-1,1.394299865E-1
1.023200269E1,5.725334287E-1,9.410378933E-1,8.781187981E-2
1.024200269E1,6.818783283E-1,6.169738770E-1,5.009094998E-2
1.025200268E1,5.447390676E-1,4.796819389E-1,1.175915636E-2
1.026200268E1,3.900374472E-1,4.088215530E-1,-9.132435173E-2
1.027200268E1,2.255619913E-1,5.786421299E-1,-1.910481006E-1
1.028200268E1,1.789835095E-1,7.223481536E-1,-2.680171132E-1
1.029200268E1,2.116648108E-1,7.344127297E-1,-2.704605758E-1
1.030200269E1,1.838704348E-1,7.719809413E-1,-2.484694421E-1
1.031200269E1,2.156354338E-1,7.371616364E-1,-1.960877478E-1
1.032200269E1,2.551889420E-1,6.334672570E-1,-7.040221989E-2
1.033200268E1,2.435825169E-1,4.593706727E-1,-2.901609987E-3
1.034200268E1,1.272126883E-1,2.799290121E-1,-2.290744707E-2
1.035200268E1,-1.527163113E-4,1.319468915E-1,-1.252273750E-2
1.036200268E1,-7.987063378E-2,2.168571576E-2,2.947424725E-2
1.037200268E1,-7.223481685E-2,-5.314527452E-2,9.666942805E-2
1.038200268E1,-2.932153270E-2,-1.108720452E-1,1.734857261E-1
1.039200269E1,-5.955935922E-3,-1.663080603E-1,2.186897546E-1
1.040200269E1,1.145372353E-2,-1.623374373E-1,3.077233732E-1
1.041200269E1,9.468411095E-3,-3.219259977E-1,3.567453027E-1
1.042200268E1,-2.412917651E-2,-3.570507467E-1,4.240931869E-1
1.043200268E1,-9.025534242E-2,-4.537201524E-1,5.366451144E-1
1.044200268E1,-1.832595654E-2,-5.186246037E-1,5.963571668E-1
1.045200268E1,1.175915636E-2,-5.561928153E-1,5.413793325E-1
1.046200268E1,2.122756653E-2,-6.337726712E-1,4.584543705E-1
1.047200269E1,1.411098689E-1,-6.820310354E-1,3.921754956E-1
1.048200269E1,4.289801121E-1,-3.342960179E-1,2.625193298E-1
1.049200269E1,4.844161272E-1,-3.367394805E-1,1.805106848E-1
1.050200268E1,6.191119552E-1,-3.315471113E-1,1.849394590E-1
1.051200268E1,7.000515461E-1,-3.683517575E-1,3.445279896E-1
1.052200268E1,6.693555713E-1,-7.499898076E-1,1.902845204E-1
1.053200268E1,4.453207552E-1,-8.370380998E-1,4.474587739E-2
1.054200268E1,4.291328490E-1,-6.991352439E-1,-5.345070735E-3
1.055200269E1,5.948300362E-1,-7.886270285E-1,-1.595885456E-1
1.056200269E1,4.651738703E-1,-7.319692969E-1,-9.453139454E-2
1.057200269E1,4.233296216E-1,-1.815796942E-1,-1.075122803E-1
1.058200268E1,2.590068579E-1,2.365575731E-1,-1.123992056E-1
1.059200268E1,1.420261711E-1,7.322747111E-1,-1.214094684E-1
1.060200268E1,8.979719132E-2,9.451612234E-1,-7.880161703E-2
1.061200268E1,-6.093380973E-2,8.646797538E-1,-1.660026312E-1
1.062200268E1,-1.443169117E-1,7.858781219E-1,-1.021672115E-1
1.063200268E1,-2.089159191E-1,5.688682795E-1,-1.918116808E-1
1.064200269E1,-1.067487001E-1,2.594650090E-1,-1.855503172E-1
1.065200269E1,-7.024950534E-2,-4.612032697E-2,6.414085161E-3
1.066200269E1,9.834930301E-2,-1.049161032E-1,-3.451388702E-2
1.067200268E1,1.404990107E-1,-2.223549485E-1,-1.088867337E-1
1.068200268E1,2.985603809E-1,-3.283400834E-1,-8.964447677E-2
1.069200268E1,3.229950070E-1,-2.869539559E-1,-2.886338346E-2
1.070200268E1,1.629483104E-1,-2.087631971E-1,-8.857546374E-3
1.071200268E1,5.497787148E-2,-1.896736622E-1,6.108652335E-3
1.072200269E1,-4.230241850E-2,-2.105957866E-1,-1.786780916E-2
1.073200269E1,-1.456913650E-1,-2.134974003E-1,-5.406157300E-2
1.074200269E1,-2.319760770E-1,-2.138028294E-1,-1.001819000E-1
1.075200268E1,-2.577851415E-1,-2.176207453E-1,-1.427897513E-1
1.076200268E1,-2.492330223E-1,-2.092213482E-1,-1.476766765E-1
1.077200268E1,-2.310597748E-1,-2.176207453E-1,-1.539380401E-1
1.078200268E1,-2.153300047E-1,-2.260201424E-1,-1.539380401E-1
1.079200268E1,-2.006692290E-1,-2.501493096E-1,-1.392772794E-1
1.080200269E1,-1.847867370E-1,-2.693915665E-1,-1.331686229E-1
1.081200269E1,-1.751656085E-1,-2.803871334E-1,-1.466076523E-1
1.082200269E1,-1.789835095E-1,-2.803871334E-1,-1.685988009E-1
1.083200268E1,-1.815796942E-1,-2.926044464E-1,-2.015855312E-1
1.084200268E1,-1.937969923E-1,-3.121521473E-1,-2.454151064E-1
1.085200268E1,-2.110539377E-1,-3.352122903E-1,-2.794708610E-1
1.086200268E1,-2.183843255E-1,-3.619376719E-1,-3.013092875E-1
1.087200268E1,-2.183843255E-1,-4.068362415E-1,-3.123048544E-1
1.088200269E1,-2.196060568E-1,-4.528038502E-1,-3.194825351E-1
1.089200269E1,-2.243402600E-1,-4.769330323E-1,-3.109304011E-1
1.090200269E1,-2.157881409E-1,-4.841107130E-1,-2.987131178E-1
1.091200269E1,-2.170098722E-1,-4.902193546E-1,-2.864958048E-1
1.092200268E1,-2.109012306E-1,-4.902193546E-1,-2.938261926E-1
1.093200268E1,-2.096794993E-1,-4.612032473E-1,-2.901609838E-1
1.094200268E1,-2.110539377E-1,-3.643811047E-1,-2.890919745E-1
1.095200268E1,-2.049452960E-1,-2.614503205E-1,-2.735149264E-1
1.096200268E1,-1.890627891E-1,-2.116648108E-1,-2.467895597E-1
1.097200269E1,-1.744020283E-1,-2.225076705E-1,-2.162462920E-1
1.098200269E1,-1.243110746E-1,-2.718350291E-1,-1.687515229E-1
1.099200269E1,-4.993823543E-2,-3.330742717E-1,-1.079704314E-1
1.100200268E1,8.704829961E-3,-3.617849350E-1,-5.085453019E-2
1.101200268E1,6.123924255E-2,-4.013384581E-1,2.107485011E-2
1.102200268E1,1.076650023E-1,-4.216497242E-1,8.933904022E-2
1.103200268E1,1.711949855E-1,-4.164573848E-1,1.598939747E-1
1.104200268E1,2.464841306E-1,-4.245513380E-1,1.754710376E-1
1.105200269E1,3.399465084E-1,-3.796527386E-1,1.640173197E-1
1.106200269E1,3.967569768E-1,-2.620611787E-1,1.331686229E-1
1.107200269E1,3.781255782E-1,-1.461495161E-1,8.292495459E-2
1.108200268E1,3.048217595E-1,-2.672535367E-2,2.321287990E-2
1.109200268E1,2.086104751E-1,6.001751125E-2,-2.535090782E-2
1.110200268E1,1.298088580E-1,1.189660057E-1,-2.397646010E-2
1.111200268E1,9.819658846E-2,1.455386430E-1,-2.260201424E-2
1.112200268E1,8.002334833E-2,1.878410578E-1,-7.941247895E-3
1.113200269E1,7.757988572E-2,2.423607856E-1,-6.872233935E-3
1.114200269E1,7.864890248E-2,3.040581644E-1,-5.803219974E-3
1.115200269E1,6.643159688E-2,3.426954150E-1,-1.435533352E-2
1.116200269E1,2.138028294E-2,3.533855379E-1,-3.741549700E-2
1.117200268E1,-1.160643995E-2,3.459024429E-1,-8.109235764E-2
1.118200268E1,-1.786780916E-2,3.179553747E-1,-1.238529310E-1
1.119200268E1,-3.512475174E-3,2.573269904E-1,-1.750128865E-1
1.120200268E1,2.428189293E-2,2.052507252E-1,-2.177734673E-1
1.121200268E1,6.291911751E-2,1.543961912E-1,-2.593123019E-1
1.122200269E1,9.926560521E-2,1.169806942E-1,-2.849686444E-1
1.123200269E1,1.343903542E-1,8.796459436E-2,-2.947424948E-1
1.124200269E1,1.488984078E-1,7.101308554E-2,-3.106249869E-1
1.125200268E1,1.464549452E-1,7.345654815E-2,-3.301726580E-1
1.126200268E1,1.537853181E-1,8.200865984E-2,-3.278819323E-1
1.127200268E1,1.792889535E-1,1.134682223E-1,-3.170390725E-1
1.128200268E1,2.205223590E-1,1.354593635E-1,-3.208569586E-1
1.129200268E1,2.701551616E-1,1.536326110E-1,-3.234531581E-1
1.130200269E1,3.431535661E-1,1.563815027E-1,-2.968805134E-1
1.131200269E1,4.198171496E-1,1.409571618E-1,-2.715296149E-1
1.132200269E1,5.036584139E-1,1.061378345E-1,-2.608394623E-1
1.133200268E1,5.497786999E-1,9.178250283E-2,-2.475531399E-1
1.134200268E1,5.815436840E-1,8.475755155E-2,-2.281581759E-1
1.135200268E1,5.949827433E-1,7.513642311E-2,-2.073887438E-1
1.136200268E1,5.998696685E-1,7.635815442E-2,-1.927279830E-1
1.137200268E1,6.035348773E-1,9.575312585E-2,-1.708895564E-1
1.138200269E1,5.951354504E-1,1.308778822E-1,-1.550070494E-1
1.139200269E1,5.855143666E-1,1.829541475E-1,-1.270599663E-1
1.140200269E1,5.650503635E-1,2.278527319E-1,-1.001819000E-1
1.141200269E1,5.274821520E-1,2.773328125E-1,-7.086037099E-2
1.142200268E1,4.850270152E-1,3.124575615E-1,-5.238169432E-2
1.143200268E1,4.329507351E-1,3.086396754E-1,-3.634648025E-2
1.144200268E1,3.831652105E-1,2.927571833E-1,-3.375030309E-2
1.145200268E1,3.104722500E-1,2.515237629E-1,-1.267545391E-2
1.146200268E1,2.316706479E-1,1.907426715E-1,-1.221730467E-2
1.147200269E1,1.733330190E-1,1.409571618E-1,-2.657263726E-2
1.148200269E1,1.527163088E-1,1.033889428E-1,-3.252857551E-2
1.149200269E1,1.394299865E-1,6.826419383E-2,-2.748893574E-2
1.150200268E1,1.104138941E-1,2.825251780E-2,-2.855795063E-2
1.151200268E1,9.957103431E-2,-8.093964309E-3,-2.000583708E-2
1.152200268E1,1.142318025E-1,-4.673119262E-2,-2.901609987E-3
1.153200268E1,1.762346178E-1,-8.521570265E-2,6.719517522E-3
1.154200268E1,2.770273983E-1,-1.237002090E-1,1.130100712E-2
1.155200269E1,3.837760985E-1,-1.293507218E-1,1.343903504E-2
1.156200269E1,5.283984542E-1,-9.865473956E-2,3.481931984E-2
1.157200269E1,6.583600044E-1,-1.588249579E-2,6.948592514E-2
1.158200268E1,7.215845585E-1,7.391469181E-2,1.154535338E-1
1.159200268E1,7.593054771E-1,1.988366395E-1,1.566869318E-1
1.160200268E1,7.603744864E-1,3.585779071E-1,1.453859210E-1
1.161200268E1,7.223481536E-1,5.398521423E-1,9.529497474E-2
1.162200268E1,6.710354686E-1,6.750060916E-1,6.352998316E-2
1.163200269E1,5.992587805E-1,8.211556077E-1,4.153883830E-2
1.164200269E1,5.323690772E-1,9.117164016E-1,4.413501546E-2
1.165200269E1,4.547891617E-1,8.825475574E-1,5.299255997E-2
1.166200269E1,3.541491330E-1,7.104362845E-1,4.993823543E-2
1.167200268E1,2.461786866E-1,3.020728528E-1,-2.748893574E-3
1.168200268E1,1.951714456E-1,-2.246456891E-1,-1.200350225E-1
1.169200268E1,1.123992056E-1,-5.700899959E-1,-2.191479057E-1
1.170200268E1,-1.357648075E-1,-9.016370773E-1,-3.813326359E-1
1.171200268E1,-4.218024611E-1,-1.009454846E0,-5.581781268E-1
1.172200269E1,-5.887213945E-1,-8.613200188E-1,-6.530149579E-1
1.173200269E1,-5.781839490E-1,-6.461427212E-1,-6.960809231E-1
1.174200269E1,-4.037819207E-1,-2.608394623E-1,-7.108944058E-1
1.175200268E1,-1.366810948E-1,1.892155111E-1,-6.198754907E-1
1.176200268E1,7.238753140E-2,5.725334287E-1,-4.821254015E-1
1.177200268E1,1.116356254E-1,7.447974682E-1,-3.628539443E-1
1.178200268E1,4.932736978E-2,7.608326674E-1,-2.089159191E-1
1.179200268E1,2.474004216E-2,6.255260110E-1,-6.093380973E-2
1.180200269E1,6.536258012E-2,4.747950137E-1,4.276056588E-2
1.181200269E1,1.536326110E-1,2.877175212E-1,1.537853181E-1
1.182200269E1,2.086104751E-1,1.719585657E-1,2.331978083E-1
1.183200268E1,2.176207453E-1,8.750644326E-2,2.906191349E-1
1.184200268E1,2.079996169E-1,2.214386500E-2,3.200933933E-1
1.185200268E1,1.669189334E-1,-4.566217586E-2,3.471241891E-1
1.186200268E1,9.911288321E-2,-8.445212245E-2,3.657555580E-1
1.187200268E1,1.298088674E-2,-1.223257631E-1,3.723223805E-1
1.188200269E1,-5.253441259E-2,-1.406517178E-1,3.651446998E-1
1.189200269E1,-1.241583601E-1,-1.577559561E-1,3.507893682E-1
1.190200269E1,-2.044871449E-1,-1.786780804E-1,3.133738637E-1
1.191200269E1,-2.701551616E-1,-1.971567571E-1,2.843577862E-1
1.192200268E1,-3.443752825E-1,-2.107485086E-1,2.638937831E-1
1.193200268E1,-4.269948006E-1,-2.255619913E-1,2.397646159E-1
1.194200268E1,-5.193881989E-1,-2.356412709E-1,2.133446932E-1
1.195200268E1,-5.885686874E-1,-2.335032374E-1,1.855503172E-1
1.196200268E1,-6.713408828E-1,-2.131919712E-1,1.576032341E-1
1.197200269E1,-7.237225771E-1,-1.869247705E-1,1.224784851E-1
1.198200269E1,-7.336491346E-1,-1.386664063E-1,8.216137439E-2
1.199200269E1,-7.133378983E-1,-8.063421398E-2,2.947424725E-2
1.200200268E1,-6.699664593E-1,-1.160643995E-2,-1.466076635E-2
1.201200268E1,-5.974262357E-1,5.497787148E-2,-6.627888232E-2
1.202200268E1,-5.309945941E-1,1.227839142E-1,-9.957103431E-2
1.203200268E1,-4.292855561E-1,2.113593817E-1,-1.404990107E-1
1.204200268E1,-3.153591752E-1,2.866485119E-1,-1.580613852E-1
1.205200269E1,-1.927279830E-1,3.439171314E-1,-1.585195363E-1
1.206200269E1,-9.208793938E-2,3.889684379E-1,-1.528690308E-1
1.207200269E1,2.565634064E-2,4.231768847E-1,-1.559233516E-1
1.208200268E1,1.156062484E-1,4.586070776E-1,-1.317941695E-1
1.209200268E1,1.678352207E-1,4.770857692E-1,-1.162171140E-1
1.210200268E1,2.092213482E-1,4.784601927E-1,-8.949175477E-2
1.211200268E1,2.057088763E-1,4.324925840E-1,-5.528330430E-2
1.212200268E1,1.478293836E-1,3.477350473E-1,-7.330383174E-3
1.213200269E1,9.315694869E-2,2.458732575E-1,-2.641992271E-2
1.214200269E1,4.459316283E-2,1.053742543E-1,-4.917465150E-2
1.215200269E1,-1.954768784E-2,4.734205548E-3,-4.153883830E-2
1.216200269E1,-1.140790880E-1,-5.833763257E-2,-1.175915636E-2
1.217200268E1,-1.866193265E-1,-5.726861581E-2,2.382374369E-2
1.218200268E1,-2.264782935E-1,-1.527163084E-3,7.269296050E-2
1.219200268E1,-2.348776907E-1,8.078692853E-2,1.262963861E-1
1.220200268E1,-2.263255715E-1,1.510364264E-1,1.408044398E-1
1.221200269E1,-2.446515262E-1,2.525927722E-1,1.406517178E-1
1.222200269E1,-2.933680415E-1,3.443752825E-1,1.261436790E-1
1.223200269E1,-3.796527386E-1,4.263839424E-1,1.079704314E-1
1.224200269E1,-4.659374654E-1,4.309654236E-1,8.628471941E-2
1.225200268E1,-5.642867684E-1,2.562579811E-1,3.695734590E-2
1.226200268E1,-6.392704844E-1,-1.554652005E-1,2.076941915E-2
1.227200268E1,-6.330091357E-1,-6.837109327E-1,2.046398520E-1
1.228200268E1,-4.764748812E-1,-1.096655846E0,3.671300113E-1
1.229200268E1,-1.624901593E-1,-1.417207360E0,4.665483236E-1
1.230200269E1,1.212567538E-1,-1.418887258E0,4.373795092E-1
1.231200269E1,2.154827118E-1,-1.136820197E0,3.720169365E-1
1.232200269E1,1.502728462E-1,-5.830708742E-1,3.066543639E-1
1.233200268E1,-8.292495459E-2,-1.970040426E-2,3.846924007E-1
1.234200268E1,-3.437644243E-1,6.114761233E-1,5.102251768E-1
1.235200268E1,-4.847215712E-1,1.044426799E0,5.539020896E-1
1.236200268E1,-5.569564104E-1,1.294423461E0,4.952589869E-1
1.237200268E1,-4.937318265E-1,1.148884773E0,2.524400651E-1
1.238200269E1,-4.347833395E-1,7.504479289E-1,7.590000331E-2
1.239200269E1,-3.584251702E-1,3.825543523E-1,-3.848451003E-2
1.240200269E1,-2.591595948E-1,-1.191187184E-2,-1.406517178E-1
1.241200269E1,-1.985312104E-1,-2.298380435E-1,-2.113593817E-1
1.242200268E1,-1.586722434E-1,-3.205515444E-1,-2.394591719E-1
1.243200268E1,-9.926560521E-2,-3.675881624E-1,-2.675589919E-1
1.244200268E1,-2.061670274E-2,-3.323107064E-1,-3.020728528E-1
1.245200268E1,6.169738993E-2,-2.729040384E-1,-3.597996235E-1
1.246200269E1,1.233947799E-1,-2.171625942E-1,-3.918700516E-1
1.247200269E1,1.960877478E-1,-1.637118906E-1,-3.946189582E-1
1.248200269E1,2.701551616E-1,-1.429424733E-1,-3.973678350E-1
1.249200269E1,3.223841190E-1,-1.609629989E-1,-3.756821156E-1
1.250200268E1,3.651446998E-1,-1.739438772E-1,-3.342960179E-1
1.251200268E1,4.056145251E-1,-2.159408629E-1,-2.684752643E-1
1.252200268E1,4.641048610E-1,-2.458732575E-1,-2.160935849E-1
1.253200268E1,5.103778839E-1,-2.383901626E-1,-1.773036420E-1
1.254200268E1,5.531384945E-1,-2.284636050E-1,-1.359175146E-1
1.255200269E1,5.800165534E-1,-1.847867370E-1,-8.735372871E-2
1.256200269E1,5.726861954E-1,-1.133155003E-1,-7.147123665E-2
1.257200269E1,5.337435007E-1,-5.299255997E-2,-8.735372871E-2
1.258200268E1,4.755585790E-1,4.489859566E-2,-5.925392732E-2
1.259200268E1,3.943135142E-1,1.282816976E-1,-2.855795063E-2
1.260200268E1,3.179553747E-1,1.765400618E-1,7.024950348E-3
1.261200268E1,2.244929820E-1,2.234239578E-1,6.108652335E-3
1.262200268E1,1.430951804E-1,2.643519342E-1,-4.734205548E-3
1.263200269E1,8.460483700E-2,3.222314119E-1,-1.924225502E-2
1.264200269E1,3.970624134E-2,4.066835344E-1,-2.412917651E-2
1.265200269E1,1.511891466E-2,5.033529401E-1,-4.856378585E-2
1.266200269E1,2.489275858E-2,5.300782919E-1,-4.627304152E-2
1.267200268E1,3.711006418E-2,4.320344329E-1,-3.878994286E-2
1.268200268E1,6.276640296E-2,2.918408811E-1,-2.886338346E-2
1.269200268E1,1.004873365E-1,9.346238524E-2,-4.825835302E-2
1.270200268E1,1.918116808E-1,-3.940080851E-2,-3.252857551E-2
1.271200269E1,2.672535479E-1,-7.406741381E-2,6.414085161E-3
1.272200269E1,3.255911767E-1,-3.023782931E-2,4.398229718E-2
1.273200269E1,3.217732608E-1,5.925392732E-2,2.306016348E-2
1.274200269E1,3.116939962E-1,1.606575549E-1,-3.924809024E-2
1.275200268E1,3.318525553E-1,2.573269904E-1,-1.041525230E-1
1.276200268E1,3.498730659E-1,3.758348525E-1,-1.374446750E-1
1.277200268E1,3.277291954E-1,5.076290369E-1,-1.534798890E-1
1.278200268E1,2.840523422E-1,6.249151230E-1,-1.485929638E-1
1.279200268E1,2.852740586E-1,6.322455406E-1,-1.253800988E-1
1.280200269E1,3.472768962E-1,4.448626041E-1,-1.424843222E-1
1.281200269E1,4.227187634E-1,-1.679879380E-3,-2.102903575E-1
1.282200269E1,4.054618180E-1,-4.532620013E-1,-3.181080818E-1
1.283200268E1,2.979495227E-1,-8.970556259E-1,-5.354233980E-1
1.284200268E1,2.043344229E-1,-1.094823241E0,-6.091853380E-1
1.285200268E1,2.118175179E-1,-1.127351761E0,-5.749769211E-1
1.286200268E1,2.787072659E-1,-9.648616314E-1,-5.316054821E-1
1.287200268E1,4.155410826E-1,-5.082398653E-1,-5.071708560E-1
1.288200269E1,5.254968405E-1,1.261436790E-1,-4.977024496E-1
1.289200269E1,5.264131427E-1,7.640396953E-1,-4.327980280E-1
1.290200269E1,4.283692539E-1,1.009607553E0,-3.364340365E-1
1.291200269E1,2.909245789E-1,9.370672703E-1,-1.808161139E-1
1.292200268E1,1.948660165E-1,6.236934066E-1,-3.359758854E-2
1.293200268E1,1.664607823E-1,3.359758854E-1,7.315111160E-2
1.294200268E1,1.139263660E-1,4.581489414E-2,1.996002197E-1
1.295200268E1,4.902193695E-2,-1.065959856E-1,2.854267955E-1
1.296200269E1,-3.207042441E-2,-1.478293836E-1,3.443752825E-1
1.297200269E1,-9.483683109E-2,-1.455386430E-1,3.909537494E-1
1.298200269E1,-1.698205322E-1,-1.238529310E-1,4.473060668E-1
1.299200269E1,-2.351831198E-1,-1.142318025E-1,4.889976382E-1
1.300200268E1,-2.765692472E-1,-1.350012124E-1,4.795292318E-1
1.301200268E1,-2.924517393E-1,-1.725694388E-1,4.515821338E-1
1.302200268E1,-3.266601861E-1,-2.261728644E-1,3.859141171E-1
1.303200268E1,-3.877467215E-1,-2.785545588E-1,3.104722500E-1
1.304200268E1,-4.437935948E-1,-2.945897579E-1,2.680171132E-1
1.305200269E1,-5.155702829E-1,-2.936734557E-1,2.328923792E-1
1.306200269E1,-5.763513446E-1,-2.672535479E-1,1.963931769E-1
1.307200269E1,-6.264423132E-1,-2.228130996E-1,1.514945775E-1
1.308200268E1,-6.424775124E-1,-1.927279830E-1,1.014036313E-1
1.309200268E1,-6.307183504E-1,-1.663080603E-1,4.031710699E-2
1.310200268E1,-5.971207619E-1,-1.311833113E-1,-1.970040426E-2
1.311200268E1,-5.548183322E-1,-9.376781434E-2,-6.872233748E-2
1.312200268E1,-4.567744732E-1,-3.298672289E-2,-1.033889428E-1
1.313200269E1,-3.440698385E-1,3.023782931E-2,-1.282816976E-1
1.314200269E1,-2.228130996E-1,9.941831976E-2,-1.543961912E-1
1.315200269E1,-1.293507218E-1,1.324050426E-1,-1.414152980E-1
1.316200269E1,-2.367102914E-2,1.872301996E-1,-1.162171140E-1
1.317200268E1,6.001751125E-2,2.541199327E-1,-9.712757170E-2
1.318200268E1,1.146899462E-1,2.930625975E-1,-9.132435173E-2
1.319200268E1,1.559233516E-1,3.052799106E-1,-8.903361112E-2
1.320200268E1,1.814269722E-1,2.968805134E-1,-8.536841720E-2
1.321200269E1,1.475239545E-1,2.713768780E-1,-7.544185966E-2
1.322200269E1,6.627888232E-2,2.228130996E-1,-6.780604273E-2
1.323200269E1,-4.169155285E-2,1.122464910E-1,-8.429940045E-2
1.324200269E1,-1.388191283E-1,-3.573561832E-2,-1.166752651E-1
1.325200268E1,-2.212859392E-1,-7.467827946E-2,-1.102611795E-1
1.326200268E1,-2.890919745E-1,-1.786780916E-2,-5.390885845E-2
1.327200268E1,-3.649919927E-1,1.056796908E-1,5.971207842E-2
1.328200268E1,-3.839288056E-1,2.583959997E-1,1.863138974E-1
1.329200269E1,-3.460551500E-1,3.761402667E-1,2.617557645E-1
1.330200269E1,-3.011565804E-1,4.294382632E-1,2.761110961E-1
1.331200269E1,-2.663372457E-1,4.827362597E-1,2.112066597E-1
1.332200269E1,-2.619084716E-1,4.473060668E-1,1.197295859E-1
1.333200268E1,-2.703078687E-1,3.116939962E-1,9.926560521E-2
1.334200268E1,-2.145664245E-1,-5.558873713E-2,2.448042482E-1
1.335200268E1,7.620543987E-2,-6.916521788E-1,5.096143484E-1
1.336200268E1,4.178318381E-1,-1.210124016E0,7.654141784E-1
1.337200268E1,6.055201888E-1,-1.341154695E0,9.040805697E-1
1.338200269E1,7.063129544E-1,-1.176221013E0,9.315695167E-1
1.339200269E1,6.314819455E-1,-7.144069076E-1,8.602510095E-1
1.340200269E1,4.239404798E-1,1.206458826E-2,7.744244337E-1
1.341200269E1,2.264782935E-1,6.065891981E-1,7.046330571E-1
1.342200268E1,2.855795063E-2,1.130558848E0,5.323690772E-1
1.343200268E1,-5.299255997E-2,1.185231328E0,2.666426897E-1
1.344200268E1,-1.069014147E-1,1.005636930E0,1.279762685E-1
1.345200268E1,-1.968513280E-1,6.832527518E-1,4.337143153E-2
1.346200269E1,-2.890919745E-1,3.173444867E-1,-2.153299935E-2
1.347200269E1,-3.413209617E-1,-3.512475174E-3,-6.963863969E-2
1.348200269E1,-3.291036487E-1,-1.777617931E-1,-9.132435173E-2
1.349200269E1,-2.819143236E-1,-2.672535479E-1,-1.169806942E-1
1.350200268E1,-1.898263693E-1,-2.270891517E-1,-1.478293836E-1
1.351200268E1,-5.894849449E-2,-1.481348276E-1,-1.814269722E-1
1.352200268E1,5.849034712E-2,-4.871650413E-2,-2.150245607E-1
1.353200268E1,2.012801021E-1,4.108068720E-2,-2.840523422E-1
1.354200269E1,3.274237812E-1,4.978551716E-2,-3.185662329E-1
1.355200269E1,4.159992337E-1,2.107485011E-2,-3.274237812E-1
1.356200269E1,5.059491396E-1,-4.398229718E-2,-3.155119121E-1
1.357200269E1,5.632177591E-1,-1.320996135E-1,-2.729040384E-1
1.358200268E1,6.133087277E-1,-1.692096740E-1,-2.144137025E-1
1.359200268E1,6.342308521E-1,-1.811215430E-1,-1.693623960E-1
1.360200268E1,6.429356933E-1,-1.701259762E-1,-1.119410545E-1
1.361200268E1,6.420193911E-1,-1.650863290E-1,-5.589416996E-2
1.362200268E1,6.276640296E-1,-1.444696337E-1,-1.679879427E-2
1.363200269E1,5.998696685E-1,-1.214094684E-1,1.618792862E-2
1.364200269E1,5.645921826E-1,-7.559457421E-2,1.511891466E-2
1.365200269E1,5.209153295E-1,2.474004216E-2,3.817907721E-2
1.366200269E1,4.737260044E-1,1.166752651E-1,6.872233748E-2
1.367200268E1,3.839288056E-1,2.133446932E-1,9.575312585E-2
1.368200268E1,2.588541508E-1,2.976440787E-1,1.058324054E-1
1.369200268E1,1.227839142E-1,3.394883573E-1,9.285151958E-2
1.370200268E1,3.283400834E-2,3.597996235E-1,6.994406879E-2
1.371200269E1,-3.283400834E-2,3.885102868E-1,4.214970022E-2
1.372200269E1,-8.277224004E-2,4.331034720E-1,5.650503561E-3
1.373200269E1,-9.865473956E-2,4.656320214E-1,-1.756237634E-2
1.374200269E1,-8.307767659E-2,4.378376603E-1,-3.588833287E-2
1.375200268E1,-3.191770986E-2,2.999348342E-1,-3.955352306E-2
1.376200268E1,5.696318299E-2,8.979719132E-2,-2.977968007E-2
1.377200268E1,1.615738571E-1,-7.559457421E-2,4.276056774E-3
1.378200268E1,2.724458873E-1,-1.889100820E-1,4.810563847E-2
1.379200269E1,3.248275816E-1,-2.104430795E-1,9.422596544E-2
1.380200269E1,3.245221674E-1,-1.499674171E-1,5.513058975E-2
1.381200269E1,3.036000133E-1,-9.819658846E-2,-7.177666761E-3
1.382200269E1,3.260493279E-1,1.985311974E-3,-1.014036313E-1
1.383200268E1,3.341432810E-1,1.180497110E-1,-1.699732542E-1
1.384200268E1,2.974913716E-1,2.339613885E-1,-1.846340150E-1
1.385200268E1,2.162462920E-1,3.851505518E-1,-1.650863290E-1
1.386200268E1,1.443169117E-1,4.101960063E-1,-2.026545405E-1
1.387200268E1,8.949175477E-2,1.556179225E-1,-3.081815243E-1
1.388200269E1,5.772676691E-2,-2.113593817E-1,-3.929390609E-1
1.389200269E1,-4.948008433E-2,-6.756169796E-1,-5.687155724E-1
1.390200269E1,-1.737911552E-1,-1.068556070E0,-7.408268452E-1
1.391200269E1,-2.368630022E-1,-1.247844934E0,-7.721336484E-1
1.392200268E1,-2.208277881E-1,-1.178664446E0,-6.977608204E-1
1.393200268E1,-7.467827946E-2,-9.054549932E-1,-5.487096906E-1
1.394200268E1,1.295034289E-1,-4.483750761E-1,-4.159992337E-1
1.395200268E1,3.263547719E-1,-4.932736978E-2,-2.929098904E-1
1.396200269E1,5.190827250E-1,3.469714522E-1,-2.735149264E-1
1.397200269E1,4.776966274E-1,6.288857460E-1,-2.493857294E-1
1.398200269E1,3.336851299E-1,5.874996781E-1,-1.719585657E-1
1.399200269E1,2.309070677E-1,3.683517575E-1,-1.333213449E-1
1.400200268E1,1.076650023E-1,8.017606288E-2,-6.658431143E-2
1.401200268E1,1.527163084E-3,-1.340849251E-1,2.214386500E-2
1.402200268E1,-6.948592514E-2,-2.756529450E-1,1.067487001E-1
1.403200268E1,-1.177442744E-1,-3.373503387E-1,1.620320082E-1
1.404200269E1,-1.853975952E-1,-3.556762934E-1,2.134974003E-1
1.405200269E1,-2.677116990E-1,-3.145956099E-1,2.747366428E-1
1.406200269E1,-3.269656301E-1,-2.747366428E-1,3.274237812E-1
1.407200269E1,-3.813326359E-1,-2.565633953E-1,3.824016452E-1
1.408200268E1,-4.054618180E-1,-2.976440787E-1,3.972151279E-1
1.409200268E1,-4.225660264E-1,-3.656028509E-1,3.462078869E-1
1.410200268E1,-4.434881806E-1,-4.118759036E-1,2.864958048E-1
1.411200268E1,-4.874704778E-1,-4.411974251E-1,2.269364446E-1
1.412200268E1,-5.374087095E-1,-4.607451260E-1,1.930334121E-1
1.413200269E1,-5.994115472E-1,-4.586070776E-1,1.650863290E-1
1.414200269E1,-6.809620261E-1,-3.657555580E-1,1.444696337E-1
1.415200269E1,-7.515169382E-1,-2.643519342E-1,1.177442744E-1
1.416200269E1,-7.689266205E-1,-2.017382532E-1,6.765332818E-2
1.417200268E1,-7.655668855E-1,-1.739438772E-1,2.489275858E-2
1.418200268E1,-7.438811660E-1,-1.547016203E-1,-1.786780916E-2
1.419200268E1,-6.834055185E-1,-1.218676195E-1,-5.971207842E-2
1.420200268E1,-5.902485251E-1,-6.368270516E-2,-9.911288321E-2
1.421200269E1,-4.993823469E-1,-6.108652451E-4,-1.276708394E-1
1.422200269E1,-3.793473244E-1,6.750060618E-2,-1.415680200E-1
1.423200269E1,-2.761110961E-1,1.018617824E-1,-1.102611795E-1
1.424200269E1,-2.153300047E-1,1.322523206E-1,-8.613199741E-2
1.425200268E1,-1.753183305E-1,1.675297916E-1,-9.010262042E-2
1.426200268E1,-1.571450830E-1,1.699732542E-1,-9.621127695E-2
1.427200268E1,-1.499674171E-1,1.554652005E-1,-1.206458881E-1
1.428200268E1,-1.525636017E-1,1.299615800E-1,-1.510364264E-1
1.429200269E1,-1.853975952E-1,9.590584040E-2,-1.753183305E-1
1.430200269E1,-2.435825169E-1,3.512475267E-2,-1.933388561E-1
1.431200269E1,-2.667953968E-1,-8.964447677E-2,-2.284636050E-1
1.432200269E1,-2.751947939E-1,-1.537853181E-1,-2.112066597E-1
1.433200268E1,-2.808452845E-1,-1.354593635E-1,-1.256855279E-1
1.434200268E1,-2.741257846E-1,4.581489484E-4,5.803219974E-3
1.435200268E1,-2.457205504E-1,1.545489132E-1,1.324050426E-1
1.436200268E1,-1.565342247E-1,3.767511547E-1,2.829833329E-1
1.437200269E1,-5.818491429E-2,5.416847467E-1,3.433062732E-1
1.438200269E1,-1.481348183E-2,6.579018831E-1,2.965750694E-1
1.439200269E1,-9.162978269E-3,7.000515461E-1,2.147191316E-1
1.440200269E1,-4.841107130E-2,6.572909951E-1,1.356120855E-1
1.441200269E1,-1.316414624E-1,3.668245673E-1,1.608102769E-1
1.442200268E1,-1.024726480E-1,-2.122756690E-1,3.301726580E-1
1.443200268E1,7.360926270E-2,-8.005388975E-1,4.757113159E-1
1.444200268E1,3.226895630E-1,-1.346194267E0,6.769914031E-1
1.445200268E1,4.347833395E-1,-1.432784438E0,7.426594496E-1
1.446200269E1,4.163046777E-1,-1.188438296E0,7.324274182E-1
1.447200269E1,2.993239760E-1,-6.298020482E-1,7.283040881E-1
1.448200269E1,1.362229437E-1,8.735372871E-2,7.619016767E-1
1.449200269E1,-5.009094998E-2,8.284859657E-1,7.638869882E-1
1.450200268E1,-1.264491081E-1,1.229671717E0,6.340781450E-1
1.451200268E1,-1.398881376E-1,1.314887404E0,4.033237696E-1
1.452200268E1,-1.600466967E-1,1.106124282E0,2.208277881E-1
1.453200268E1,-2.272418737E-1,7.365507483E-1,6.658431143E-2
1.454200269E1,-2.808452845E-1,4.335615933E-1,-3.512475267E-2
1.455200269E1,-2.932153046E-1,1.319468915E-1,-1.444696337E-1
1.456200269E1,-2.704605758E-1,-8.124507964E-2,-2.284636050E-1
1.457200269E1,-2.244929820E-1,-1.791362315E-1,-2.771801054E-1
1.458200268E1,-1.444696337E-1,-2.383901626E-1,-3.262020350E-1
1.459200268E1,-1.970040426E-2,-2.151772827E-1,-3.743076921E-1
1.460200268E1,1.099557430E-1,-1.409571618E-1,-3.969096839E-1
1.461200268E1,1.948660165E-1,-7.055493444E-2,-3.972151279E-1
1.462200269E1,2.895501256E-1,-1.939497143E-2,-3.707951903E-1
1.463200269E1,3.685044646E-1,-2.153299935E-2,-3.674354553E-1
1.464200269E1,4.170682430E-1,-2.015855350E-2,-3.616322279E-1
1.465200269E1,4.549418986E-1,-3.451388702E-2,-3.226895630E-1
1.466200269E1,4.746423066E-1,-4.764748737E-2,-2.750420868E-1
1.467200268E1,5.015203953E-1,-4.978551716E-2,-2.251038402E-1
1.468200268E1,5.006040931E-1,-5.574145541E-2,-1.776090711E-1
1.469200268E1,4.923573732E-1,-8.231408894E-2,-1.275181174E-1
1.470200268E1,4.549418986E-1,-1.064432710E-1,-9.926560521E-2
1.471200269E1,3.904955983E-1,-6.429356337E-2,-9.056077152E-2
1.472200269E1,3.420845270E-1,-2.596177394E-3,-6.108652428E-2
1.473200269E1,2.597704530E-1,6.856962293E-2,-1.328631863E-2
1.474200269E1,1.603521258E-1,1.519527286E-1,2.718350291E-2
1.475200268E1,7.895433158E-2,2.231185287E-1,4.077525437E-2
1.476200268E1,-0.000000000E0,3.717114925E-1,3.344487399E-2
1.477200268E1,-3.909537569E-2,5.178610086E-1,6.566801574E-3
1.478200268E1,-5.894849449E-2,5.806274414E-1,-4.718934000E-2
1.479200269E1,-4.444044828E-2,5.201517344E-1,-6.307183951E-2
1.480200269E1,-2.474004216E-2,3.750712574E-1,-4.703662544E-2
1.481200269E1,1.069014193E-3,2.081523389E-1,-1.511891466E-2
1.482200269E1,8.384125680E-2,7.299839705E-2,2.015855350E-2
1.483200268E1,1.313360333E-1,-1.756237634E-2,2.871066704E-2
1.484200268E1,1.937969923E-1,-6.307183951E-2,1.189660057E-1
1.485200268E1,2.252565622E-1,-7.147123665E-2,1.102611795E-1
1.486200268E1,2.383901626E-1,-3.772092983E-2,7.605272532E-2
1.487200269E1,2.803871334E-1,1.110247597E-1,-1.221730490E-3
1.488200269E1,3.185662329E-1,3.310889602E-1,-8.720101416E-2
1.489200269E1,3.034473062E-1,5.027421117E-1,-1.716531366E-1
1.490200269E1,2.765692472E-1,6.223189831E-1,-1.838704348E-1
1.491200269E1,2.605340183E-1,7.553348541E-1,-2.023491114E-1
1.492200268E1,2.751947939E-1,7.638869882E-1,-1.878410578E-1
1.493200268E1,3.142901659E-1,4.941899776E-1,-1.936442852E-1
1.494200268E1,3.171917796E-1,1.740965992E-2,-1.904372424E-1
1.495200268E1,2.637410760E-1,-7.017314434E-1,-3.159700334E-1
1.496200269E1,1.942551434E-1,-1.239750981E0,-4.831944108E-1
1.497200269E1,1.747074574E-1,-1.427439332E0,-5.181664228E-1
1.498200269E1,1.882992089E-1,-1.359480619E0,-4.818199575E-1
1.499200269E1,2.293798923E-1,-9.720393419E-1,-4.386012554E-1
1.500200268E1,3.197879493E-1,-3.958406746E-1,-4.509712756E-1
1.501200268E1,4.392121136E-1,1.017090604E-1,-5.143485069E-1
1.502200268E1,4.659374654E-1,7.075346708E-1,-6.520986557E-1
1.503200268E1,3.371976018E-1,1.072832108E0,-5.913175344E-1
1.504200269E1,1.678352207E-1,1.111316562E0,-4.699080884E-1
1.505200269E1,5.451972410E-2,9.769262671E-1,-3.558290005E-1
1.506200269E1,3.359758761E-3,7.522805333E-1,-1.757764816E-1
1.507200269E1,5.955935922E-3,4.877758920E-1,2.962696366E-2
1.508200268E1,-1.679879380E-3,2.741257846E-1,1.849394590E-1
1.509200268E1,-3.100141138E-2,3.481931984E-2,3.294090927E-1
1.510200268E1,-5.085453019E-2,-1.985312104E-1,4.506658316E-1
1.511200268E1,-4.917465150E-2,-3.992004395E-1,5.059491396E-1
1.512200269E1,-4.780020565E-2,-5.285511613E-1,5.146539807E-1
1.513200269E1,-4.780020565E-2,-6.423248053E-1,5.013676286E-1
1.514200269E1,-5.406157300E-2,-6.788240075E-1,4.428772926E-1
1.515200269E1,-7.147123665E-2,-6.609562039E-1,3.721696436E-1
1.516200269E1,-1.120937690E-1,-5.839871764E-1,2.709187269E-1
1.517200268E1,-2.035708427E-1,-4.731151462E-1,1.991420686E-1
1.518200268E1,-3.144428730E-1,-3.561344445E-1,1.481348276E-1
1.519200268E1,-4.008803070E-1,-2.657263875E-1,1.201877370E-1
1.520200268E1,-4.810563922E-1,-1.644754708E-1,1.081231460E-1
1.521200269E1,-5.224425197E-1,-1.064432710E-1,8.857546002E-2
1.522200269E1,-5.262604356E-1,-9.819658846E-2,6.062837690E-2
1.523200269E1,-4.923573732E-1,-9.086620808E-2,3.726277873E-2
1.524200269E1,-4.271475375E-1,-7.864890248E-2,-3.359758761E-3
1.525200268E1,-3.459024429E-1,-6.872233748E-2,-3.161227703E-2
1.526200268E1,-2.852740586E-1,-6.612616032E-2,-3.680463135E-2
1.527200268E1,-2.136501223E-1,-4.413501546E-2,-3.222314268E-2
1.528200268E1,-1.698205322E-1,-1.985312067E-2,-1.893682219E-2
1.529200269E1,-1.444696337E-1,1.053742506E-2,-1.420261711E-2
1.530200269E1,-1.395827085E-1,3.237585723E-2,-1.435533352E-2
1.531200269E1,-1.395827085E-1,4.795292020E-2,-2.779436857E-2
1.532200269E1,-1.337794960E-1,5.513058975E-2,-7.162395120E-2
1.533200268E1,-1.776090711E-1,7.910704613E-2,-9.483683109E-2
1.534200268E1,-2.590068579E-1,1.127046347E-1,-1.055269688E-1
1.535200268E1,-3.720169365E-1,8.216137439E-2,-1.380555481E-1
1.536200268E1,-4.413501322E-1,-2.962696366E-2,-1.887573600E-1
1.537200269E1,-4.923573732E-1,-6.841690838E-2,-2.032654136E-1
1.538200269E1,-5.238169432E-1,-7.941247895E-3,-1.543961912E-1
1.539200269E1,-4.870123267E-1,1.800525337E-1,-4.871650413E-2
1.540200269E1,-3.906483352E-1,3.959933817E-1,7.513642311E-2
1.541200269E1,-3.065016270E-1,5.212207437E-1,1.795943826E-1
1.542200268E1,-2.092213482E-1,6.123924255E-1,2.461786866E-1
1.543200268E1,-1.597412676E-1,7.153232098E-1,1.994474977E-1
1.544200268E1,-1.858557463E-1,7.984008789E-1,9.453139454E-2
1.545200269E1,-2.796235681E-1,8.028296232E-1,3.741549700E-2
1.546200269E1,-4.016439021E-1,6.550002694E-1,9.911288321E-2
1.547200269E1,-3.888157308E-1,1.724167168E-1,1.621847153E-1
1.548200269E1,-3.283400834E-1,-4.346306324E-1,2.544253767E-1
1.549200269E1,-2.845104933E-1,-1.029307961E0,4.101960063E-1
1.550200268E1,-2.971859276E-1,-1.112538338E0,5.287038684E-1
1.551200268E1,-3.298672438E-1,-6.513350606E-1,6.195700765E-1
1.552200268E1,-3.179553747E-1,-9.697485715E-2,6.919575930E-1
1.553200268E1,-1.919644028E-1,5.340489149E-1,7.464773059E-1
1.554200269E1,-3.940080851E-2,9.046914577E-1,7.295258045E-1
1.555200269E1,1.038470939E-1,9.891435504E-1,5.103778839E-1
1.556200269E1,1.343903542E-1,8.762862086E-1,3.103195429E-1
1.557200269E1,3.802636266E-2,7.302893996E-1,1.718058437E-1
1.558200268E1,-1.311833113E-1,5.940664411E-1,5.925392732E-2
1.559200268E1,-2.347249687E-1,4.639521539E-1,-2.321287990E-2
1.560200268E1,-2.580905557E-1,3.039054573E-1,-1.094975919E-1
1.561200268E1,-1.853975952E-1,1.660026312E-1,-1.656972021E-1
1.562200269E1,-5.925392732E-2,7.559457421E-2,-2.098322064E-1
1.563200269E1,6.200282276E-2,2.138028294E-2,-2.322815061E-1
1.564200269E1,2.197587788E-1,-3.863722831E-2,-2.486221492E-1
1.565200269E1,3.799581826E-1,-8.048149943E-2,-2.674062550E-1
1.566200269E1,4.880813360E-1,-1.249219403E-1,-2.652682364E-1
1.567200268E1,5.925393105E-1,-1.681406647E-1,-2.509129047E-1
1.568200268E1,6.763805151E-1,-2.041817009E-1,-2.365575731E-1
1.569200268E1,7.396050692E-1,-2.475531399E-1,-2.134974003E-1
1.570200269E1,7.641924024E-1,-2.703078687E-1,-1.818851233E-1
1.571200269E1,7.910705209E-1,-2.652682364E-1,-1.466076523E-1
1.572200269E1,8.020660877E-1,-2.289217561E-1,-1.148426682E-1
1.573200269E1,8.106181622E-1,-2.021963894E-1,-9.666942805E-2
1.574200269E1,8.045095205E-1,-1.840231568E-1,-9.056077152E-2
1.575200268E1,7.704538107E-1,-1.792889535E-1,-1.026253626E-1
1.576200268E1,7.110471725E-1,-1.262963861E-1,-1.012509167E-1
1.577200268E1,6.444628239E-1,-7.788532227E-2,-5.849034712E-2
1.578200268E1,5.560401082E-1,-5.497787148E-3,8.857546374E-3
1.579200269E1,4.494441152E-1,4.520402849E-2,5.681046844E-2
1.580200269E1,3.404046595E-1,9.330966324E-2,9.254608303E-2
1.581200269E1,2.590068579E-1,1.403462887E-1,1.036943719E-1
1.582200269E1,1.824959964E-1,2.029599845E-1,9.651670605E-2
1.583200268E1,1.395827085E-1,2.608394623E-1,3.436116874E-2
1.584200268E1,9.804387391E-2,2.932153046E-1,-3.145955876E-2
1.585200268E1,9.422596544E-2,2.736676335E-1,-6.551529467E-2
1.586200268E1,1.027780771E-1,1.576032341E-1,-6.780604273E-2
1.587200269E1,1.514945775E-1,1.496619824E-2,-5.558873713E-2
1.588200269E1,2.028072625E-1,-8.292495459E-2,-3.115412779E-2
1.589200269E1,2.419026345E-1,-1.588249654E-1,4.123340361E-3
1.590200269E1,2.298380435E-1,-1.649336219E-1,2.367102914E-2
1.591200269E1,1.725694388E-1,-1.579086632E-1,-1.878410578E-2
1.592200268E1,1.589776874E-1,-1.314887404E-1,-6.032294407E-2
1.593200268E1,1.999056488E-1,-7.223481685E-2,-1.081231460E-1
1.594200268E1,2.130392492E-1,1.252273750E-2,-1.351539344E-1
1.595200269E1,2.057088763E-1,1.722639948E-1,-1.122464910E-1
1.596200269E1,2.035708427E-1,3.139847219E-1,-4.291328415E-2
1.597200269E1,1.745547503E-1,3.685044646E-1,-1.237002108E-2
1.598200269E1,1.440114826E-1,1.878410578E-1,-8.384125680E-2
1.599200269E1,1.803579628E-1,-1.412625909E-1,-1.542434692E-1
1.600200268E1,2.113593817E-1,-6.717990637E-1,-3.365867436E-1
1.601200269E1,1.195768714E-1,-1.062294602E0,-5.564982295E-1
1.602200268E1,2.947424725E-2,-1.214094639E0,-6.473644376E-1
1.603200269E1,3.451388702E-2,-1.209055066E0,-6.096435189E-1
1.604200268E1,1.389718503E-1,-1.001666307E0,-5.664247870E-1
1.605200268E1,3.233004212E-1,-6.004805565E-1,-5.348125100E-1
1.606200268E1,4.812090993E-1,-1.061378345E-1,-4.263839424E-1
1.607200268E1,5.583308339E-1,2.788599730E-1,-4.456261992E-1
1.608200269E1,5.099197626E-1,6.128505468E-1,-3.617849350E-1
1.609200268E1,4.159992337E-1,6.505714655E-1,-2.223549485E-1
1.610200269E1,3.523165286E-1,5.514585972E-1,-1.072068512E-1
1.611200268E1,3.083342314E-1,3.350595832E-1,4.337143153E-2
1.612200268E1,2.460259795E-1,1.211040318E-1,1.696678251E-1
1.613200268E1,1.470658034E-1,-5.681046844E-2,2.507601976E-1
1.614200268E1,3.100141138E-2,-1.574505121E-1,3.136793077E-1
1.615200268E1,-9.850201756E-2,-2.593123019E-1,3.814853430E-1
1.616200268E1,-2.000583708E-1,-3.272710443E-1,4.269948006E-1
1.617200269E1,-2.764165103E-1,-3.758348525E-1,4.396702647E-1
1.618200268E1,-3.506366611E-1,-4.366159439E-1,4.192062616E-1
1.619200269E1,-3.906483352E-1,-4.888449013E-1,3.926336467E-1
1.620200268E1,-4.262312353E-1,-5.181664228E-1,3.316998184E-1
1.621200268E1,-4.712825418E-1,-5.256495476E-1,2.794708610E-1
1.622200268E1,-5.383250117E-1,-5.187773108E-1,2.333505303E-1
1.623200268E1,-6.174320579E-1,-5.106833577E-1,2.018909603E-1
1.624200269E1,-6.855435371E-1,-4.842634201E-1,1.765400618E-1
1.625200268E1,-7.281513810E-1,-4.541783035E-1,1.423316002E-1
1.626200269E1,-7.612907887E-1,-3.952298164E-1,9.728029370E-2
1.627200268E1,-7.677049041E-1,-3.034473062E-1,3.741549700E-2
1.628200269E1,-7.582364678E-1,-2.357939780E-1,-3.054326167E-3
1.629200268E1,-7.148650289E-1,-1.716531366E-1,-5.940664560E-2
1.630200268E1,-6.473644376E-1,-1.110247597E-1,-1.146899462E-1
1.631200268E1,-5.601634383E-1,-5.283984542E-2,-1.638645977E-1
1.632200268E1,-4.766276181E-1,3.054326167E-3,-1.838704348E-1
1.633200269E1,-3.649919927E-1,8.323039114E-2,-1.782199293E-1
1.634200268E1,-2.629774809E-1,1.550070494E-1,-1.580613852E-1
1.635200269E1,-1.876883507E-1,2.206750661E-1,-1.363756657E-1
1.636200268E1,-1.511891484E-1,2.727513313E-1,-1.207986027E-1
1.637200268E1,-1.403462887E-1,3.103195429E-1,-1.075122803E-1
1.638200268E1,-1.572978050E-1,2.861903608E-1,-1.061378345E-1
1.639200268E1,-2.044871449E-1,2.435825169E-1,-1.096503139E-1
1.640200268E1,-3.233004212E-1,1.744020283E-1,-8.093964309E-2
1.641200268E1,-4.350887835E-1,4.566217586E-2,-1.377501190E-1
1.642200269E1,-5.236642361E-1,-7.574728876E-2,-1.542434692E-1
1.643200268E1,-5.988006592E-1,-1.036943719E-1,-1.417207420E-1
1.644200269E1,-6.606507897E-1,-8.811730891E-2,-1.036943719E-1
1.645200268E1,-6.846272349E-1,-4.688390717E-2,-3.420845419E-2
1.646200268E1,-6.478226185E-1,4.657847434E-2,3.268129006E-2
1.647200268E1,-5.931501389E-1,1.388191283E-1,6.414084882E-2
1.648200268E1,-5.606215596E-1,2.768746614E-1,5.879577994E-2
1.649200269E1,-5.633704662E-1,3.735440969E-1,-4.734205548E-3
1.650200268E1,-6.157521605E-1,3.744603992E-1,-4.123340547E-2
1.651200269E1,-6.323982477E-1,2.232712507E-1,9.162978269E-3
1.652200268E1,-4.805982411E-1,-2.428189367E-1,1.826487035E-1
1.653200269E1,-1.522581577E-1,-9.285151958E-1,4.181372523E-1
1.654200268E1,1.243110746E-1,-1.316872716E0,5.690209866E-1
1.655200268E1,3.358231783E-1,-1.284649611E0,6.181956530E-1
1.656200268E1,3.874412775E-1,-7.690793276E-1,6.111706495E-1
1.657200268E1,3.529273868E-1,1.267545391E-2,6.453791261E-1
1.658200269E1,2.811507285E-1,5.922338367E-1,7.118107080E-1
1.659200268E1,1.786780804E-1,1.046717644E0,6.907358766E-1
1.660200269E1,6.948592514E-2,1.151175499E0,4.908302128E-1
1.661200268E1,-3.588833287E-2,1.007469535E0,2.631302178E-1
1.662200268E1,-1.797471046E-1,7.270823717E-1,8.231408894E-2
1.663200268E1,-2.637410760E-1,4.300491214E-1,-2.794708498E-2
1.664200268E1,-2.457205504E-1,2.096794993E-1,-1.020144969E-1
1.665200268E1,-1.559233516E-1,1.069014147E-1,-1.314887404E-1
1.666200268E1,-4.581489484E-4,1.664607786E-2,-1.270599663E-1
1.667200269E1,1.647808999E-1,-5.894849449E-2,-1.055269688E-1
1.668200268E1,3.043636084E-1,-8.521570265E-2,-1.010981947E-1
1.669200269E1,4.631885588E-1,-7.635815442E-2,-1.408044398E-1
1.670200268E1,5.893322229E-1,-3.359758854E-2,-1.473712474E-1
1.671200268E1,6.789767146E-1,-1.771509275E-2,-1.721112877E-1
1.672200268E1,7.214318514E-1,-2.000583708E-2,-1.905899495E-1
1.673200268E1,7.420485616E-1,-3.924809024E-2,-1.821905524E-1
1.674200269E1,7.460191846E-1,-6.215553731E-2,-1.369865239E-1
1.675200268E1,7.254024744E-1,-7.192938030E-2,-1.368338168E-1
1.676200269E1,7.060074806E-1,-8.888089657E-2,-1.319468915E-1
1.677200268E1,6.782131195E-1,-9.010262042E-2,-1.146899462E-1
1.678200269E1,6.513350606E-1,-7.330382615E-2,-1.195768714E-1
1.679200268E1,6.235406995E-1,-4.062253982E-2,-1.108720452E-1
1.680200268E1,5.786421299E-1,2.901609987E-3,-7.788532227E-2
1.681200268E1,5.375614166E-1,5.726861581E-2,-4.245513305E-2
1.682200268E1,4.744895697E-1,1.165225431E-1,-2.031126991E-2
1.683200269E1,4.115704596E-1,1.635591686E-1,1.038470957E-2
1.684200268E1,3.145956099E-1,2.130392492E-1,5.574145541E-2
1.685200269E1,2.150245607E-1,2.405281961E-1,5.360342562E-2
1.686200268E1,1.348485053E-1,2.667953968E-1,5.146539584E-2
1.687200268E1,9.361509979E-2,2.570215464E-1,4.795292020E-2
1.688200268E1,6.933320314E-2,2.206750661E-1,4.688390717E-2
1.689200268E1,7.406741381E-2,1.722639948E-1,1.404990070E-2
1.690200268E1,8.139779419E-2,1.710422635E-1,4.276056774E-3
1.691200268E1,4.489859566E-2,1.308778822E-1,-1.023199316E-2
1.692200269E1,1.679879427E-2,3.023782931E-2,-4.902193695E-2
1.693200268E1,2.412917651E-2,-8.109235764E-2,-5.742133409E-2
1.694200269E1,6.673702598E-2,-1.559233516E-1,-4.886921868E-2
1.695200268E1,9.743300825E-2,-2.064724565E-1,-1.359175146E-2
1.696200268E1,1.241583601E-1,-1.398881376E-1,2.046398632E-2
1.697200268E1,1.750128865E-1,-4.581489484E-4,2.855795063E-2
1.698200268E1,2.199114859E-1,1.073595658E-1,1.970040426E-2
1.699200269E1,2.535090744E-1,2.561052442E-1,-6.261368748E-3
1.700200268E1,2.580905557E-1,3.746131063E-1,-5.039638281E-2
1.701200269E1,2.690861523E-1,4.450153410E-1,-2.138028294E-2
1.702200268E1,3.081815243E-1,5.225952268E-1,2.840523422E-2
1.703200269E1,3.556762934E-1,5.882632136E-1,7.574728876E-2
1.704200268E1,4.053090811E-1,5.907067060E-1,5.849034712E-2
1.705200268E1,4.512766898E-1,4.189008474E-1,1.099557430E-2
1.706200268E1,5.057964325E-1,-1.039998084E-1,-1.275181174E-1
1.707200268E1,4.300491214E-1,-6.843217611E-1,-3.092505336E-1
1.708200269E1,2.561052442E-1,-1.169348836E0,-4.834998548E-1
1.709200268E1,1.175915599E-1,-1.425301313E0,-5.546656251E-1
1.710200269E1,5.955935922E-3,-1.442558289E0,-5.542075038E-1
1.711200268E1,5.345070735E-3,-1.083216786E0,-5.878050923E-1
1.712200268E1,8.597928286E-2,-6.501133442E-1,-6.754642725E-1
1.713200268E1,2.037235647E-1,-3.405573592E-2,-7.793113589E-1
1.714200268E1,2.484694421E-1,5.360342264E-1,-7.304421067E-1
1.715200268E1,1.359175146E-1,9.294314981E-1,-5.731443167E-1
1.716200268E1,2.000583708E-2,1.028697014E0,-4.387539625E-1
1.717200269E1,-1.305724531E-1,9.514226317E-1,-2.269364446E-1
1.718200268E1,-2.008219510E-1,6.963863969E-1,-2.367102914E-2
1.719200269E1,-1.999056488E-1,4.353941977E-1,1.291979998E-1
1.720200268E1,-1.731802970E-1,1.565342247E-1,3.052799106E-1
1.721200268E1,-1.566869318E-1,-5.726861581E-2,4.324925840E-1
1.722200268E1,-1.744020283E-1,-2.277000248E-1,4.999932051E-1
1.723200268E1,-1.912008226E-1,-3.463605940E-1,5.161811113E-1
1.724200269E1,-2.312124968E-1,-4.868595898E-1,4.920519590E-1
1.725200268E1,-2.932153046E-1,-5.972734690E-1,4.631885588E-1
1.726200269E1,-3.857614100E-1,-6.461427212E-1,3.878994286E-1
1.727200268E1,-4.795292318E-1,-6.404922009E-1,3.346014321E-1
1.728200269E1,-6.061310172E-1,-5.794056654E-1,2.593123019E-1
1.729200268E1,-7.266241908E-1,-4.697553813E-1,2.021963894E-1
1.730200268E1,-8.119926453E-1,-3.746131063E-1,1.608102769E-1
1.731200268E1,-8.910996914E-1,-2.551889420E-1,1.157589629E-1
1.732200268E1,-9.289733171E-1,-1.718058437E-1,9.025534242E-2
1.733200269E1,-9.279043078E-1,-1.258382350E-1,8.521570265E-2
1.734200268E1,-8.878926635E-1,-9.682214260E-2,6.673702598E-2
1.735200269E1,-8.141306639E-1,-7.116580009E-2,2.855795063E-2
1.736200268E1,-7.111998796E-1,-4.199698567E-2,-1.695151068E-2
1.737200268E1,-5.972734690E-1,-7.941247895E-3,-5.406157300E-2
1.738200268E1,-5.050328374E-1,8.093964309E-3,-5.803219974E-2
1.739200268E1,-3.752239645E-1,8.720101416E-2,-4.886921868E-2
1.740200268E1,-2.428189367E-1,1.626428664E-1,-1.053742506E-2
1.741200268E1,-1.492038369E-1,2.102903575E-1,2.076941915E-2
1.742200269E1,-5.207626149E-2,2.661845386E-1,3.497203439E-2
1.743200268E1,2.443460934E-2,2.858849466E-1,5.299255997E-2
1.744200269E1,6.444628537E-2,2.835941911E-1,5.772676691E-2
1.745200268E1,6.322455406E-2,2.750420868E-1,4.932736978E-2
1.746200268E1,8.552113548E-3,2.385428846E-1,2.993239649E-2
1.747200268E1,-7.651086897E-2,1.510364264E-1,-1.832595654E-2
1.748200268E1,-1.484402567E-1,6.719517522E-3,-8.750644326E-2
1.749200269E1,-1.982257664E-1,-9.636399150E-2,-1.200350225E-1
1.750200268E1,-2.550362349E-1,-1.424843222E-1,-8.307767659E-2
1.751200269E1,-3.042109013E-1,-8.536841720E-2,4.627304152E-2
1.752200268E1,-3.318525553E-1,2.489275858E-2,1.243110746E-1
1.753200269E1,-3.109304011E-1,2.066251636E-1,2.044871449E-1
1.754200268E1,-2.611449063E-1,3.387247920E-1,2.272418737E-1
1.755200268E1,-2.249511331E-1,4.331034720E-1,2.025018334E-1
1.756200268E1,-2.047925740E-1,4.995350540E-1,1.328631938E-1
1.757200268E1,-2.683225572E-1,5.403103232E-1,4.764748737E-2
1.758200269E1,-3.958406746E-1,4.201225638E-1,2.138028294E-2
1.759200268E1,-3.972151279E-1,5.619960278E-2,1.513418704E-1
1.760200269E1,-2.686280012E-1,-3.967569768E-1,3.078760803E-1
1.761200268E1,-4.489859566E-2,-9.085093141E-1,5.470298529E-1
1.762200268E1,6.520986557E-2,-1.085660219E0,6.676757336E-1
1.763200268E1,7.971791178E-2,-9.488264322E-1,6.930266023E-1
1.764200268E1,5.161811411E-2,-5.798638463E-1,7.023423314E-1
1.765200268E1,-4.230241850E-2,-4.398229718E-2,7.261660695E-1
1.766200268E1,-1.847867370E-1,5.169447064E-1,7.221954465E-1
1.767200269E1,-2.438879460E-1,8.359690905E-1,6.302602291E-1
1.768200268E1,-1.966986060E-1,9.117164016E-1,3.602577746E-1
1.769200269E1,-1.782199293E-1,7.901542187E-1,1.554652005E-1
1.770200268E1,-2.150245607E-1,6.058256030E-1,4.367686436E-2
1.771200268E1,-2.638937831E-1,3.426954150E-1,-6.918048859E-2
1.772200268E1,-2.799290121E-1,1.223257631E-1,-1.420261711E-1
1.773200268E1,-2.409863323E-1,-5.436700583E-2,-1.748601794E-1
1.774200269E1,-1.779145002E-1,-1.510364264E-1,-1.980730593E-1
1.775200268E1,-7.742717117E-2,-2.089159191E-1,-2.460259795E-1
1.776200269E1,4.245513305E-2,-1.893682331E-1,-3.025310040E-1
1.777200268E1,1.333213449E-1,-1.649336219E-1,-3.492622077E-1
1.778200269E1,1.999056488E-1,-1.502728462E-1,-3.678936064E-1
1.779200268E1,2.738203406E-1,-1.550070494E-1,-3.840815127E-1
1.780200268E1,3.394883573E-1,-1.826487035E-1,-3.805690408E-1
1.781200268E1,3.674354553E-1,-2.151772827E-1,-3.683517575E-1
1.782200268E1,4.005748928E-1,-2.548835278E-1,-3.208569586E-1
1.783200269E1,4.250094891E-1,-2.764165103E-1,-2.758056521E-1
1.784200268E1,4.518875778E-1,-2.496911734E-1,-2.393064648E-1
1.785200269E1,4.653266072E-1,-2.095267773E-1,-2.076941878E-1
1.786200268E1,4.642575979E-1,-1.551597714E-1,-1.870774776E-1
1.787200268E1,4.448626041E-1,-1.006400511E-1,-1.736384481E-1
1.788200268E1,4.169155359E-1,-2.321287990E-2,-1.614211351E-1
1.789200268E1,3.807217777E-1,3.237585723E-2,-1.186605766E-1
1.790200268E1,3.104722500E-1,9.285151958E-2,-6.612616032E-2
1.791200268E1,2.196060568E-1,1.446223408E-1,-3.283400834E-2
1.792200269E1,1.310305893E-1,1.867720485E-1,-9.468411095E-3
1.793200268E1,1.557706390E-2,2.385428846E-1,-2.244929783E-2
1.794200269E1,-8.170322329E-2,2.913827300E-1,-5.024366826E-2
1.795200268E1,-1.547016203E-1,3.370448947E-1,-6.841690838E-2
1.796200268E1,-1.704314053E-1,3.381139040E-1,-7.819075137E-2
1.797200268E1,-1.766927689E-1,3.236058652E-1,-1.146899462E-1
1.798200268E1,-1.414152980E-1,2.535090744E-1,-1.171334088E-1
1.799200269E1,-7.574728876E-2,1.327104717E-1,-9.896016866E-2
1.800200268E1,-3.558290005E-2,9.162978968E-4,-1.085812971E-1
1.801200269E1,3.161227703E-2,-1.342376322E-1,-4.886921868E-2
1.802200268E1,9.987647086E-2,-2.015855312E-1,-1.527163113E-4
1.803200269E1,1.389718503E-1,-2.063197345E-1,4.245513305E-2
1.804200268E1,1.742493063E-1,-1.516472995E-1,7.391469181E-2
1.805200268E1,1.947132945E-1,-2.336559631E-2,7.116580009E-2
1.806200268E1,2.405281961E-1,1.643227488E-1,3.298672289E-2
1.807200268E1,2.776382565E-1,2.961169183E-1,-2.474004216E-2
1.808200269E1,2.544253767E-1,3.625485301E-1,-6.872233748E-2
1.809200268E1,2.032654136E-1,3.816380501E-1,-7.467827946E-2
1.810200269E1,1.400408596E-1,3.414736688E-1,-1.183551401E-1
1.811200268E1,1.046106741E-1,2.020436823E-1,-1.838704348E-1
1.812200268E1,8.994990587E-2,-1.600466967E-1,-2.539672256E-1
1.813200268E1,8.399397135E-3,-6.094908118E-1,-3.834706545E-1
1.814200268E1,-1.012509167E-1,-9.115636349E-1,-5.216789246E-1
1.815200268E1,-2.215913683E-1,-1.171181440E0,-6.172793508E-1
1.816200268E1,-2.579378486E-1,-1.235322237E0,-6.061310172E-1
1.817200269E1,-1.837177277E-1,-1.009912968E0,-5.468770862E-1
1.818200268E1,-7.590000331E-2,-5.338962078E-1,-4.931209683E-1
1.819200269E1,-0.000000000E0,2.420553565E-1,-4.544837475E-1
1.820200268E1,-3.665191587E-3,8.219192028E-1,-3.700316250E-1
1.821200268E1,-6.414084882E-2,1.045801282E0,-2.895501256E-1
1.822200268E1,-1.643227488E-1,1.015563488E0,-1.878410578E-1
1.823200268E1,-2.073887438E-1,7.603744864E-1,-1.018617824E-1
1.824200269E1,-1.884519309E-1,4.230241776E-1,-3.176499158E-2
1.825200268E1,-1.540907621E-1,1.776090711E-1,1.847867295E-2
1.826200269E1,-1.414152980E-1,-6.551529467E-2,6.154467165E-2
1.827200268E1,-1.750128865E-1,-2.069306076E-1,1.168279797E-1
1.828200269E1,-2.316706479E-1,-3.037527502E-1,1.806633919E-1
1.829200268E1,-2.909245789E-1,-3.352122903E-1,2.382374406E-1
1.830200268E1,-3.573561609E-1,-3.353650272E-1,2.835941911E-1
1.831200268E1,-4.095851481E-1,-2.991712391E-1,2.922990322E-1
1.832200268E1,-4.279111028E-1,-2.629774809E-1,2.629774809E-1
1.833200269E1,-4.341724813E-1,-2.437352389E-1,2.360994220E-1
1.834200268E1,-4.538728893E-1,-2.197587788E-1,1.922698319E-1
1.835200269E1,-4.915938079E-1,-1.931861341E-1,1.826487035E-1
1.836200268E1,-5.377141237E-1,-1.608102769E-1,1.681406647E-1
1.837200268E1,-6.168211699E-1,-1.380555481E-1,1.414152980E-1
1.838200268E1,-6.776022911E-1,-1.528690308E-1,1.197295859E-1
1.839200268E1,-7.069237828E-1,-1.711949855E-1,9.422596544E-2
1.840200269E1,-7.057020664E-1,-1.844813079E-1,7.605272532E-2
1.841200268E1,-6.562219858E-1,-1.675297916E-1,3.191770986E-2
1.842200269E1,-5.824599862E-1,-1.469130963E-1,-1.481348183E-2
1.843200268E1,-5.073235631E-1,-1.346957833E-1,-5.421429127E-2
1.844200269E1,-4.309654236E-1,-1.175915599E-1,-7.528914511E-2
1.845200268E1,-3.594942093E-1,-8.704829961E-2,-7.070764899E-2
1.846200268E1,-2.756529450E-1,-2.504547499E-2,-5.635231733E-2
1.847200268E1,-2.306016237E-1,3.680463135E-2,-2.855795063E-2
1.848200268E1,-1.821905524E-1,1.337794960E-1,-3.145955876E-2
1.849200269E1,-1.650863290E-1,2.017382532E-1,-7.177666761E-3
1.850200268E1,-1.518000066E-1,2.199114859E-1,3.817907767E-3
1.851200269E1,-1.579086632E-1,2.199114859E-1,-4.734205548E-3
1.852200268E1,-2.089159191E-1,1.966986060E-1,-1.191187184E-2
1.853200269E1,-3.095559776E-1,1.563815027E-1,-2.000583708E-2
1.854200268E1,-3.776674271E-1,9.330966324E-2,-3.787364438E-2
1.855200268E1,-4.103487432E-1,3.023782931E-2,-5.360342562E-2
1.856200268E1,-4.550946057E-1,2.046398632E-2,-1.435533352E-2
1.857200268E1,-5.335907936E-1,6.398813426E-2,7.376197726E-2
1.858200269E1,-5.794056654E-1,1.123992056E-1,1.324050426E-1
1.859200268E1,-5.682573915E-1,1.937969923E-1,2.102903575E-1
1.860200269E1,-5.097670555E-1,2.582432926E-1,2.686280012E-1
1.861200268E1,-4.879286289E-1,3.103195429E-1,2.587014437E-1
1.862200268E1,-5.064072609E-1,3.404046595E-1,2.159408629E-1
1.863200268E1,-5.429064631E-1,3.014619946E-1,1.979203373E-1
1.864200268E1,-5.302310586E-1,1.032362282E-1,2.628247738E-1
1.865200269E1,-4.273002446E-1,-2.009746730E-1,3.935499489E-1
1.866200268E1,-2.220495194E-1,-6.510296464E-1,5.997169614E-1
1.867200269E1,-6.551529467E-2,-9.320276380E-1,7.814493775E-1
1.868200268E1,-5.787948146E-2,-8.785769343E-1,8.423831463E-1
1.869200269E1,-1.262963861E-1,-6.429356933E-1,8.092437387E-1
1.870200268E1,-2.762638032E-1,-2.200642079E-1,7.359399199E-1
1.871200268E1,-4.896084964E-1,3.223841190E-1,6.637051105E-1
1.872200268E1,-6.371324658E-1,6.627888083E-1,5.771149397E-1
1.873200268E1,-7.136433125E-1,8.362745047E-1,3.781255782E-1
1.874200269E1,-7.220427394E-1,7.351763248E-1,1.368338168E-1
1.875200268E1,-7.724391222E-1,5.349652171E-1,-1.282817032E-2
1.876200269E1,-8.066475391E-1,3.555235863E-1,-9.056077152E-2
1.877200268E1,-8.019133210E-1,1.339322031E-1,-1.707368344E-1
1.878200269E1,-7.727445364E-1,-7.422012836E-2,-2.070833147E-1
1.879200268E1,-7.060074806E-1,-2.385428846E-1,-2.217440903E-1
1.880200268E1,-6.284276247E-1,-2.771801054E-1,-2.561052442E-1
1.881200268E1,-5.013676286E-1,-2.333505303E-1,-3.213151097E-1
1.882200268E1,-3.767511547E-1,-1.739438772E-1,-3.816380501E-1
1.883200269E1,-2.991712391E-1,-1.337794960E-1,-4.112650156E-1
1.884200268E1,-2.324342281E-1,-9.728029370E-2,-4.189008474E-1
1.885200269E1,-1.791362315E-1,-6.566801667E-2,-4.178318381E-1
1.886200268E1,-1.501201391E-1,-1.007927675E-2,-4.364632070E-1
1.887200268E1,-1.404990107E-1,-2.748893574E-3,-4.389066696E-1
1.888200268E1,-1.354593635E-1,-1.237002108E-2,-4.071416855E-1
1.889200268E1,-1.145372316E-1,-7.330383174E-3,-3.706424832E-1
1.890200269E1,-6.093380973E-2,-1.313360315E-2,-3.365867436E-1
1.891200268E1,-1.114829071E-2,-2.611448988E-2,-3.087923825E-1
1.892200269E1,3.161227703E-2,-2.962696366E-2,-2.661845386E-1
1.893200268E1,3.543018550E-2,-1.847867295E-2,-2.101376504E-1
1.894200269E1,-1.832595794E-3,-6.414085161E-3,-1.635591686E-1
1.895200268E1,-6.719517708E-2,1.893682219E-2,-1.218676195E-1
1.896200268E1,-1.180497110E-1,4.306599870E-2,-8.521570265E-2
1.897200268E1,-1.737911552E-1,4.780020565E-2,-5.574145541E-2
1.898200268E1,-2.197587788E-1,5.146539584E-2,-2.993239649E-2
1.899200269E1,-2.779437006E-1,5.131268129E-2,-6.566801574E-3
1.900200268E1,-3.165809214E-1,2.458732575E-2,1.084285788E-2
1.901200269E1,-3.480404615E-1,-3.833179548E-2,1.221730467E-2
1.902200268E1,-3.649919927E-1,-1.038470939E-1,7.483099122E-3
1.903200269E1,-3.770565689E-1,-1.522581577E-1,1.496619824E-2
1.904200268E1,-3.709479272E-1,-1.641700417E-1,4.062253982E-2
1.905200268E1,-3.599523604E-1,-1.666134894E-1,6.001751125E-2
1.906200268E1,-3.596469164E-1,-1.519527286E-1,9.666942805E-2
1.907200268E1,-3.425426781E-1,-1.094975919E-1,1.343903542E-1
1.908200269E1,-3.158173263E-1,-5.482515693E-2,1.463022232E-1
1.909200268E1,-3.025310040E-1,6.872233935E-3,1.583668143E-1
1.910200269E1,-3.025310040E-1,1.606575549E-1,1.751656085E-1
1.911200268E1,-3.051272035E-1,3.167336285E-1,1.884519309E-1
1.912200268E1,-2.895501256E-1,4.558582008E-1,1.576032341E-1
1.913200268E1,-2.729040384E-1,5.198463202E-1,1.110247597E-1
1.914200268E1,-2.464841306E-1,5.294674635E-1,5.115996301E-2
1.915200269E1,-2.345722616E-1,5.051855445E-1,-1.221730467E-2
1.916200268E1,-2.533563673E-1,4.515821338E-1,-1.171334088E-1
1.917200269E1,-2.924517393E-1,2.829833329E-1,-1.910481006E-1
1.918200268E1,-3.156646192E-1,-3.970623948E-3,-2.747366428E-1
1.919200269E1,-3.327688277E-1,-4.109596014E-1,-3.678936064E-1
1.920200268E1,-4.071416855E-1,-7.551821470E-1,-5.148066878E-1
1.921200268E1,-5.363397002E-1,-1.052368045E0,-6.589708924E-1
1.922200268E1,-6.082690954E-1,-1.076955438E0,-7.307475209E-1
1.923200268E1,-6.412557960E-1,-8.981246352E-1,-7.516697049E-1
1.924200269E1,-6.513350606E-1,-4.540255964E-1,-7.449501753E-1
1.925200268E1,-6.284276247E-1,6.887505949E-2,-6.910412908E-1
1.926200269E1,-6.441574097E-1,4.793764949E-1,-6.001750827E-1
1.927200268E1,-7.250970602E-1,6.791294217E-1,-4.696026444E-1
1.928200269E1,-8.188648820E-1,6.574437022E-1,-3.045163155E-1
1.929200268E1,-8.179485798E-1,4.375322461E-1,-1.734857261E-1
1.930200268E1,-7.783950567E-1,1.487456858E-1,-8.903361112E-2
1.931200268E1,-7.585419416E-1,-5.421429127E-2,-2.901609987E-2
1.932200268E1,-7.787004709E-1,-2.368630022E-1,2.993239649E-2
1.933200269E1,-8.561276197E-1,-3.507893682E-1,5.604688451E-2
1.934200268E1,-9.532552361E-1,-4.091269970E-1,5.772676691E-2
1.935200269E1,-1.103833556E0,-4.375322461E-1,4.489859566E-2
1.936200268E1,-1.257924199E0,-4.754058719E-1,5.039638281E-2
1.937200268E1,-1.405906320E0,-4.964807332E-1,4.978551716E-2
1.938200268E1,-1.498147011E0,-4.992296100E-1,5.253441259E-2
1.939200268E1,-1.595274568E0,-4.789183438E-1,5.039638281E-2
1.940200269E1,-1.677894115E0,-4.392121136E-1,4.948008433E-2
1.941200268E1,-1.758070230E0,-3.862195611E-1,4.718934000E-2
1.942200269E1,-1.816407800E0,-3.440698385E-1,3.390302137E-2
1.943200268E1,-1.880854130E0,-3.335324228E-1,6.108652335E-3
1.944200269E1,-1.932014108E0,-3.530801237E-1,-4.245513305E-2
1.945200268E1,-1.961335540E0,-3.714060783E-1,-8.506298810E-2
1.946200268E1,-1.962862730E0,-3.801108897E-1,-1.351539344E-1
1.947200268E1,-1.938733578E0,-3.619376719E-1,-1.693623960E-1
1.948200268E1,-1.883144855E0,-3.207042515E-1,-1.941024363E-1
1.949200269E1,-1.816407800E0,-2.660318017E-1,-2.005165219E-1
1.950200268E1,-1.703703165E0,-1.459967941E-1,-2.133446932E-1
1.951200269E1,-1.552055836E0,-6.688974798E-2,-2.066251636E-1
1.952200268E1,-1.382082582E0,-1.786780916E-2,-1.915062517E-1
1.953200269E1,-1.244790673E0,1.649336144E-2,-1.713477075E-1
1.954200268E1,-1.101542711E0,6.291911751E-2,-1.548543423E-1
1.955200268E1,-9.839512110E-1,1.455386430E-1,-1.603521258E-1
1.956200268E1,-9.185886383E-1,2.000583708E-1,-1.789835095E-1
1.957200268E1,-8.846855760E-1,2.280054539E-1,-2.095267773E-1
1.958200269E1,-8.652906418E-1,2.449569702E-1,-2.145664245E-1
1.959200268E1,-8.081747293E-1,2.064724565E-1,-1.915062517E-1
1.960200269E1,-8.019133210E-1,1.702786833E-1,-1.634064466E-1
1.961200268E1,-8.429940343E-1,1.472185254E-1,-1.388191283E-1
1.962200268E1,-8.477282524E-1,1.653917581E-1,-1.168279797E-1
1.963200268E1,-7.783950567E-1,1.973094791E-1,-5.375614017E-2
1.964200268E1,-6.905831695E-1,2.002110779E-1,1.557706390E-2
1.965200269E1,-5.856670737E-1,1.947132945E-1,1.175915599E-1
1.966200268E1,-5.235115290E-1,2.060143054E-1,1.844813079E-1
1.967200269E1,-5.051855445E-1,2.484694421E-1,1.989893466E-1
1.968200268E1,-5.088507533E-1,2.979495227E-1,1.928807050E-1
1.969200269E1,-5.806274414E-1,2.929098904E-1,1.589776874E-1
1.970200268E1,-6.682865620E-1,2.319760770E-1,1.203404516E-1
1.971200268E1,-6.679811478E-1,7.101308554E-2,1.400408596E-1
1.972200268E1,-6.198754907E-1,-2.780964077E-1,2.466368377E-1
1.973200268E1,-5.958990455E-1,-5.791002512E-1,3.471241891E-1
1.974200269E1,-6.188064814E-1,-6.977608204E-1,3.743076921E-1
1.975200268E1,-6.940956116E-1,-6.035348773E-1,3.695734739E-1
1.976200269E1,-7.780895829E-1,-2.855795026E-1,3.741549551E-1
1.977200268E1,-9.146180153E-1,1.386664063E-1,3.593414724E-1
1.978200269E1,-1.049771905E0,4.601342380E-1,3.361285925E-1
1.979200268E1,-1.190118194E0,7.400632501E-1,2.251038402E-1
1.980200268E1,-1.308931470E0,7.791585922E-1,1.924225502E-2
1.981200268E1,-1.416901946E0,5.989533663E-1,-2.374738604E-1
1.982200268E1,-1.474628687E0,3.695734739E-1,-4.187481403E-1
1.983200269E1,-1.489594936E0,7.391469181E-2,-5.671883821E-1
1.984200268E1,-1.447139740E0,-1.365283877E-1,-5.900958180E-1
1.985200269E1,-1.391092896E0,-2.342668176E-1,-5.633704662E-1
1.986200268E1,-1.315498352E0,-2.811507285E-1,-5.268712640E-1
1.987200268E1,-1.223257661E0,-2.409863323E-1,-5.114469528E-1
1.988200268E1,-1.129948020E0,-1.814269722E-1,-5.216789246E-1
1.989200268E1,-1.065654397E0,-1.316414624E-1,-5.256495476E-1
1.990200269E1,-1.023199320E0,-9.147707373E-2,-5.160284042E-1
1.991200268E1,-1.006247759E0,-5.390885845E-2,-5.125159621E-1
1.992200269E1,-1.008691192E0,-3.817907721E-2,-5.137376785E-1
1.993200268E1,-1.020755768E0,-1.771509275E-2,-5.161811113E-1
1.994200269E1,-1.046259403E0,-1.649336144E-2,-5.112941861E-1
1.995200268E1,-1.053589821E0,-6.017022580E-2,-5.160284042E-1
1.996200268E1,-1.045037746E0,-1.049161032E-1,-5.099197626E-1
1.997200268E1,-1.023046613E0,-1.580613852E-1,-4.928155243E-1
1.998200268E1,-9.947940707E-1,-2.171625942E-1,-4.512766898E-1
1.999200269E1,-9.604328871E-1,-2.640464902E-1,-3.927863538E-1
2.000200268E1,-9.250026941E-1,-2.637410760E-1,-3.281873465E-1
2.001200269E1,-8.736900091E-1,-2.125810981E-1,-2.722931802E-1
2.002200268E1,-8.214610219E-1,-1.276708394E-1,-2.348776907E-1
2.003200269E1,-7.741189599E-1,-2.825251780E-2,-2.131919712E-1
2.004200268E1,-7.437284589E-1,3.726277873E-2,-1.951714456E-1
2.005200268E1,-7.072292566E-1,8.338310570E-2,-1.843285859E-1
2.006200268E1,-6.841690540E-1,1.052215397E-1,-1.747074574E-1
2.007200268E1,-6.743952036E-1,9.804387391E-2,-1.759291887E-1
2.008200269E1,-6.527095437E-1,7.864890248E-2,-1.846340150E-1
2.009200268E1,-6.185010672E-1,5.955936015E-2,-1.650863290E-1
2.010200269E1,-5.638286471E-1,5.849034712E-2,-1.409571618E-1
2.011200268E1,-5.028948188E-1,5.879577994E-2,-1.130100712E-1
2.012200268E1,-4.117231667E-1,4.948008433E-2,-7.437284291E-2
2.013200268E1,-2.973386645E-1,5.482515693E-2,-1.985312067E-2
2.014200268E1,-1.672243625E-1,6.872233748E-2,3.817907721E-2
2.015200269E1,-3.955352306E-2,8.613199741E-2,8.292495459E-2
2.016200268E1,1.293507218E-1,1.629483104E-1,1.284344196E-1
2.017200269E1,2.649627924E-1,3.049744666E-1,9.972374886E-2
2.018200268E1,3.254384696E-1,4.792237878E-1,8.338310570E-2
2.019200269E1,3.507893682E-1,6.693555713E-1,8.903361112E-2
2.020200268E1,3.312416673E-1,8.471173644E-1,9.132435173E-2
2.021200268E1,2.800817192E-1,9.546296597E-1,8.765916526E-2
2.022200268E1,2.156354338E-1,8.805622458E-1,5.619960278E-2
2.023200268E1,1.061378345E-1,5.471825600E-1,-7.712173462E-2
2.024200269E1,3.802636266E-2,8.567385375E-2,-1.760819107E-1
2.025200268E1,-3.741549700E-2,-3.104722500E-1,-2.764165103E-1
2.026200269E1,-2.128865421E-1,-7.411322594E-1,-4.935791194E-1
2.027200268E1,-4.321871698E-1,-1.014647126E0,-7.046330571E-1
2.028200269E1,-6.406449080E-1,-9.673051238E-1,-8.662069440E-1
2.029200268E1,-7.165449262E-1,-6.956228018E-1,-9.604328871E-1
2.030200268E1,-6.323982477E-1,-1.449277848E-1,-1.010371089E0
2.031200268E1,-4.952589869E-1,4.425718784E-1,-9.202684760E-1
2.032200268E1,-4.034765065E-1,9.166033268E-1,-7.005097270E-1
2.033200269E1,-3.286454976E-1,1.141248941E0,-4.827362597E-1
2.034200268E1,-1.789835095E-1,1.107498646E0,-1.916589737E-1
2.035200269E1,7.635815418E-4,8.025242090E-1,3.268129006E-2
2.036200268E1,1.047633886E-1,4.799873531E-1,1.342376322E-1
2.037200268E1,1.212567538E-1,1.632537395E-1,2.151772827E-1
2.038200268E1,3.176499158E-2,9.162978968E-4,2.426662147E-1
2.039200268E1,-1.090394482E-1,-8.659014851E-2,2.420553565E-1
2.040200269E1,-2.218967974E-1,-1.548543423E-1,2.145664245E-1
2.041200268E1,-3.689626157E-1,-2.086104751E-1,1.638645977E-1
2.042200269E1,-5.135849714E-1,-2.431243658E-1,1.266018152E-1
2.043200268E1,-6.243042946E-1,-2.507601976E-1,8.918632567E-2
2.044200269E1,-6.924157739E-1,-2.437352389E-1,6.261368841E-2
2.045200268E1,-7.603744864E-1,-2.258674204E-1,7.254024595E-2
2.046200268E1,-8.185594082E-1,-2.405281961E-1,7.040221989E-2
2.047200268E1,-8.756753206E-1,-2.431243658E-1,6.688974798E-2
2.048200268E1,-9.448558092E-1,-2.275473028E-1,7.452555746E-2
2.049200269E1,-1.018923283E0,-1.963931769E-1,7.712173462E-2
2.050200268E1,-1.084438562E0,-1.857030392E-1,5.910121277E-2
2.051200269E1,-1.120937705E0,-1.846340150E-1,3.970624134E-2
2.052200268E1,-1.145525098E0,-1.594358236E-1,-6.108652451E-4
2.053200269E1,-1.147052169E0,-1.160643995E-1,-6.047565863E-2
2.054200268E1,-1.123075724E0,-4.963280261E-2,-1.107193232E-1
2.055200268E1,-1.085660219E0,3.665191587E-3,-1.438587606E-1
2.056200269E1,-1.026406288E0,7.040221989E-2,-1.649336219E-1
2.057200268E1,-9.572258592E-1,1.359175146E-1,-1.542434692E-1
2.058200269E1,-8.891143799E-1,2.113593817E-1,-1.119410545E-1
2.059200268E1,-8.016079068E-1,2.939788997E-1,-7.696902007E-2
2.060200269E1,-7.250970602E-1,3.378084898E-1,-5.665775016E-2
2.061200268E1,-6.739370823E-1,3.924809098E-1,-3.252857551E-2
2.062200268E1,-6.424775124E-1,3.985895813E-1,-2.886338346E-2
2.063200268E1,-6.194173694E-1,3.720169365E-1,-4.734205827E-2
2.064200268E1,-6.122397184E-1,3.005456924E-1,-8.506298810E-2
2.065200269E1,-6.354525685E-1,2.047925740E-1,-1.177442744E-1
2.066200268E1,-6.342308521E-1,1.114829108E-1,-1.469130963E-1
2.067200269E1,-6.172793508E-1,4.382958263E-2,-1.540907621E-1
2.068200268E1,-5.916230083E-1,6.093380973E-2,-1.285871267E-1
2.069200269E1,-5.659666657E-1,1.397354305E-1,-8.368854225E-2
2.070200268E1,-5.244278312E-1,2.973386645E-1,1.527163113E-4
2.071200268E1,-4.561636150E-1,4.430300295E-1,9.605856240E-2
2.072200268E1,-3.978259861E-1,5.219843388E-1,1.261436790E-1
2.073200268E1,-3.930917978E-1,5.461135507E-1,9.071348608E-2
2.074200269E1,-4.361577928E-1,5.662720799E-1,-3.054326167E-3
2.075200268E1,-5.105306506E-1,5.259549618E-1,-7.971791178E-2
2.076200269E1,-5.868887901E-1,3.526219726E-1,-9.498954564E-2
2.077200268E1,-6.200281978E-1,-4.169155285E-2,1.557706390E-2
2.078200269E1,-4.656320214E-1,-5.972734690E-1,2.002110779E-1
2.079200268E1,-1.971567571E-1,-1.002429843E0,3.952298164E-1
2.080200268E1,-5.940664560E-2,-1.027169943E0,5.155702829E-1
2.081200269E1,-2.519819140E-2,-7.751879692E-1,6.017022729E-1
2.082200268E1,-8.750644326E-2,-4.546364546E-1,5.855143666E-1
2.083200269E1,-2.399173230E-1,-7.788532227E-2,5.158756971E-1
2.084200268E1,-4.089742899E-1,2.591595948E-1,5.073235631E-1
2.085200269E1,-5.297728777E-1,7.440338731E-1,4.679227769E-1
2.086200268E1,-5.513058901E-1,9.721920490E-1,3.419318199E-1
2.087200268E1,-5.470298529E-1,9.101892114E-1,2.078468949E-1
2.088200268E1,-5.293147564E-1,6.568328738E-1,5.085453019E-2
2.089200268E1,-4.703662395E-1,3.239113092E-1,-9.529497474E-2
2.090200269E1,-3.966042697E-1,4.077525437E-2,-1.927279830E-1
2.091200268E1,-3.286454976E-1,-9.346238524E-2,-2.244929820E-1
2.092200269E1,-2.353358418E-1,-1.513418704E-1,-2.600758672E-1
2.093200268E1,-1.311833113E-1,-1.487456858E-1,-3.142901659E-1
2.094200269E1,-7.635815535E-3,-1.279762685E-1,-3.573561609E-1
2.095200268E1,9.666942805E-2,-9.865473956E-2,-3.871358633E-1
2.096200268E1,2.105957866E-1,-6.200282276E-2,-4.059199691E-1
2.097200268E1,2.845104933E-1,-5.100724846E-2,-4.172209501E-1
2.098200268E1,3.295617998E-1,-7.498370856E-2,-4.149302244E-1
2.099200269E1,3.721696436E-1,-1.244637966E-1,-4.002694488E-1
2.100200268E1,4.123340547E-1,-1.980730593E-1,-3.674354553E-1
2.101200269E1,4.550946057E-1,-2.764165103E-1,-3.234531581E-1
2.102200268E1,4.857905805E-1,-3.185662329E-1,-2.845104933E-1
2.103200269E1,5.406157374E-1,-3.352122903E-1,-2.394591719E-1
2.104200268E1,5.917757154E-1,-3.132211566E-1,-1.921171248E-1
2.105200268E1,6.343835592E-1,-2.779437006E-1,-1.533271819E-1
2.106200269E1,6.565274000E-1,-2.535090744E-1,-1.143845171E-1
2.107200268E1,6.565274000E-1,-2.073887438E-1,-8.521570265E-2
2.108200269E1,6.348416805E-1,-1.203404516E-1,-5.100724846E-2
2.109200268E1,5.911648273E-1,-5.390885845E-2,-3.512475267E-2
2.110200269E1,5.146539807E-1,3.313944116E-2,-1.175915636E-2
2.111200268E1,4.199698567E-1,9.453139454E-2,-5.497787148E-3
2.112200268E1,3.277291954E-1,1.560760736E-1,9.162978968E-4
2.113200268E1,2.816088796E-1,1.921171248E-1,-6.261368748E-3
2.114200268E1,2.596177161E-1,2.138028294E-1,-1.114829071E-2
2.115200269E1,3.094032407E-1,2.067778856E-1,-2.351831272E-2
2.116200268E1,3.785837293E-1,1.815796942E-1,-1.893682219E-2
2.117200269E1,4.416555762E-1,1.574505121E-1,-2.519819140E-2
2.118200268E1,4.943426847E-1,1.082758680E-1,4.550946131E-2
2.119200269E1,5.299255848E-1,2.260201424E-2,1.149953827E-1
2.120200268E1,5.847507715E-1,-4.612032697E-2,1.492038369E-1
2.121200268E1,6.601926088E-1,-8.323039114E-2,1.867720485E-1
2.122200268E1,6.945537925E-1,-6.368270516E-2,2.379320115E-1
2.123200268E1,6.627888083E-1,1.847867295E-2,2.328923792E-1
2.124200269E1,5.908594131E-1,1.186605766E-1,1.927279830E-1
2.125200268E1,5.151121020E-1,2.681698501E-1,1.220203340E-1
2.126200269E1,4.540255964E-1,3.561344445E-1,4.031710699E-2
2.127200268E1,3.978259861E-1,3.691153228E-1,-1.069014147E-2
2.128200269E1,3.419318199E-1,2.926044464E-1,-3.726277873E-2
2.129200268E1,3.005456924E-1,1.192714423E-1,-1.185078546E-1
2.130200268E1,2.736676335E-1,-1.725694388E-1,-1.875356287E-1
2.131200269E1,2.616030276E-1,-5.199990273E-1,-2.296853364E-1
2.132200268E1,1.788308024E-1,-9.876163602E-1,-3.591887653E-1
2.133200269E1,3.894266114E-2,-1.361160517E0,-5.044219494E-1
2.134200268E1,-8.521570265E-2,-1.471879840E0,-5.989533663E-1
2.135200269E1,-1.305724531E-1,-1.271363258E0,-6.455318332E-1
2.136200268E1,-1.140790880E-1,-7.014260292E-1,-6.319400668E-1
2.137200268E1,-4.428773001E-2,-1.679879380E-3,-6.137668490E-1
2.138200268E1,1.145372353E-2,4.486805201E-1,-5.804746747E-1
2.139200268E1,-1.130100712E-2,8.507825732E-1,-4.456261992E-1
2.140200269E1,-1.039998084E-1,9.514226317E-1,-2.550362349E-1
2.141200268E1,-1.453859210E-1,8.332201838E-1,-8.155050874E-2
2.142200269E1,-1.264491081E-1,6.508769393E-1,3.711006418E-2
2.143200268E1,-1.014036313E-1,3.801108897E-1,1.363756657E-1
2.144200269E1,-1.156062484E-1,1.563815027E-1,1.867720485E-1
2.145200268E1,-1.783726513E-1,-5.543602258E-2,2.105957866E-1
2.146200268E1,-2.339613885E-1,-2.067778856E-1,2.390010208E-1
2.147200268E1,-3.173444867E-1,-3.449861407E-1,2.809980214E-1
2.148200268E1,-4.117231667E-1,-4.225660264E-1,3.278819323E-1
2.149200269E1,-4.796819389E-1,-4.492913783E-1,3.294090927E-1
2.150200268E1,-5.294674635E-1,-4.592179358E-1,3.075706363E-1
2.151200269E1,-5.612324476E-1,-4.581489265E-1,2.771801054E-1
2.152200268E1,-5.772676468E-1,-4.656320214E-1,2.333505303E-1
2.153200269E1,-6.029239893E-1,-4.306600094E-1,1.980730593E-1
2.154200268E1,-6.553056836E-1,-3.813326359E-1,1.579086632E-1
2.155200268E1,-7.162395120E-1,-3.307835162E-1,1.360702366E-1
2.156200269E1,-7.709119320E-1,-2.753475010E-1,1.142318025E-1
2.157200268E1,-7.832819819E-1,-2.270891517E-1,9.468411654E-2
2.158200269E1,-7.689266205E-1,-1.629483104E-1,6.032294407E-2
2.159200268E1,-7.327328324E-1,-1.133155003E-1,2.718350291E-2
2.160200269E1,-6.953173876E-1,-7.696902007E-2,-5.955935922E-3
2.161200268E1,-6.273586154E-1,-6.963863969E-2,-1.970040426E-2
2.162200268E1,-5.484042764E-1,-5.482515693E-2,-6.566801574E-3
2.163200268E1,-4.659374654E-1,-2.061670274E-2,1.679879380E-3
2.164200268E1,-3.930917978E-1,-8.246680722E-3,9.926560335E-3
2.165200269E1,-2.984076738E-1,-6.872233935E-3,1.069014147E-2
2.166200268E1,-2.157881409E-1,7.941247895E-3,2.015855350E-2
2.167200269E1,-1.756237596E-1,2.993239649E-2,3.344487399E-2
2.168200268E1,-1.611157060E-1,6.505715102E-2,4.306599870E-2
2.169200269E1,-1.586722434E-1,1.159116775E-1,5.757404864E-2
2.170200268E1,-1.270599663E-1,8.216137439E-2,4.291328415E-2
2.171200268E1,-9.086620808E-2,4.214970022E-2,6.261368748E-3
2.172200268E1,-8.093964309E-2,8.399397135E-3,4.413501546E-2
2.173200268E1,-1.256855279E-1,2.535090782E-2,8.323039114E-2
2.174200269E1,-1.632537395E-1,1.113301888E-1,1.113301888E-1
2.175200268E1,-1.776090711E-1,2.359467000E-1,1.563815027E-1
2.176200269E1,-2.102903575E-1,3.944662213E-1,2.134974003E-1
2.177200268E1,-2.429716438E-1,4.937318265E-1,2.403754741E-1
2.178200269E1,-2.674062550E-1,5.505422950E-1,2.232712507E-1
2.179200268E1,-2.872593701E-1,5.900958180E-1,1.403462887E-1
2.180200268E1,-3.376557529E-1,5.667302608E-1,2.703078650E-2
2.181200269E1,-4.590652287E-1,4.900666475E-1,1.786780916E-2
2.182200268E1,-5.119050741E-1,3.352122903E-1,7.070764899E-2
2.183200269E1,-4.065308273E-1,-1.638645977E-1,2.066251636E-1
2.184200268E1,-1.047633886E-1,-8.556694984E-1,4.555527568E-1
2.185200269E1,2.023491114E-1,-1.315192819E0,6.224716902E-1
2.186200268E1,3.434589803E-1,-1.302517414E0,6.841690540E-1
2.187200268E1,3.723223805E-1,-7.506006956E-1,7.331910133E-1
2.188200268E1,3.011565804E-1,2.257147133E-1,7.586946487E-1
2.189200268E1,2.399173230E-1,8.584184051E-1,7.457137704E-1
2.190200269E1,1.889100820E-1,1.182024240E0,5.671883821E-1
2.191200268E1,1.380555481E-1,1.052978992E0,3.210096955E-1
2.192200269E1,3.054326214E-2,8.064948320E-1,1.461495161E-1
2.193200268E1,-6.811147183E-2,5.965099335E-1,3.817907721E-2
2.194200269E1,-2.020436823E-1,3.417791128E-1,-8.170322329E-2
2.195200268E1,-2.545780838E-1,1.368338168E-1,-1.812742651E-1
2.196200268E1,-2.255619913E-1,-4.474587739E-2,-2.530509233E-1
2.197200268E1,-2.026545405E-1,-1.950187236E-1,-3.113885522E-1
2.198200268E1,-1.252273768E-1,-3.327688277E-1,-3.627012372E-1
2.199200269E1,-7.635815535E-3,-3.822489381E-1,-4.192062616E-1
2.200200268E1,9.285151958E-2,-3.336851299E-1,-4.599815309E-1
2.201200269E1,2.055561543E-1,-2.729040384E-1,-4.909829497E-1
2.202200268E1,3.049744666E-1,-2.967278063E-1,-5.096143484E-1
2.203200269E1,3.865249753E-1,-3.750712574E-1,-4.816672504E-1
2.204200268E1,4.546364546E-1,-4.305072725E-1,-4.537201524E-1
2.205200268E1,5.204572082E-1,-5.015203953E-1,-4.027129114E-1
2.206200269E1,5.888741016E-1,-5.216789246E-1,-3.419318199E-1
2.207200268E1,6.498079300E-1,-5.299255848E-1,-2.809980214E-1
2.208200269E1,6.924157739E-1,-4.957171381E-1,-2.446515262E-1
2.209200268E1,7.108944058E-1,-4.314235747E-1,-1.948660165E-1
2.210200269E1,7.000515461E-1,-3.405573666E-1,-1.437060535E-1
2.211200268E1,6.843217611E-1,-2.425135076E-1,-1.108720452E-1
2.212200268E1,6.359107494E-1,-1.033889428E-1,-7.788532227E-2
2.213200268E1,5.739079118E-1,3.558290005E-2,-6.200282276E-2
2.214200268E1,4.780020416E-1,1.466076523E-1,-3.863722831E-2
2.215200269E1,4.004221559E-1,2.299907655E-1,-1.908953860E-2
2.216200268E1,3.032945991E-1,3.071125150E-1,-7.788531948E-3
2.217200269E1,2.341141105E-1,3.541491330E-1,-6.414085161E-3
2.218200268E1,1.963931769E-1,3.793473244E-1,-2.703078650E-2
2.219200269E1,1.647808999E-1,3.817907870E-1,-2.214386500E-2
2.220200268E1,1.516472995E-1,3.248275816E-1,0.000000000E0
2.221200268E1,1.519527286E-1,2.040289938E-1,4.291328415E-2
2.222200268E1,1.740965992E-1,8.323039114E-2,7.971791178E-2
2.223200268E1,2.629774809E-1,-4.108068720E-2,1.282816976E-1
2.224200269E1,3.846924007E-1,-1.035416573E-1,1.756237596E-1
2.225200268E1,4.783074856E-1,-6.078109145E-2,2.191479057E-1
2.226200269E1,4.928155243E-1,4.703662544E-2,2.139555514E-1
2.227200268E1,4.497495294E-1,2.185370475E-1,1.418734491E-1
2.228200269E1,4.040873647E-1,3.958406746E-1,2.092213556E-2
2.229200268E1,3.538436890E-1,5.093088746E-1,-6.078109145E-2
2.230200268E1,2.625193298E-1,6.238461137E-1,-1.107193232E-1
2.231200269E1,1.847867370E-1,7.179193497E-1,-8.613199741E-2
2.232200268E1,1.641700417E-1,6.985244155E-1,-9.330966324E-2
2.233200269E1,1.942551434E-1,4.987714589E-1,-1.663080603E-1
2.234200268E1,1.921171248E-1,-1.191187184E-2,-2.119702399E-1
2.235200269E1,1.291979998E-1,-6.633996367E-1,-2.935207486E-1
2.236200268E1,1.466076635E-2,-1.177290082E0,-4.692972302E-1
2.237200268E1,-5.864306539E-2,-1.367727280E0,-5.784893632E-1
2.238200268E1,-1.111774743E-1,-1.316109180E0,-6.394231915E-1
2.239200268E1,-7.742717117E-2,-9.625709057E-1,-6.462954283E-1
2.240200269E1,-3.054326214E-2,-5.062545538E-1,-6.459900141E-1
2.241200268E1,3.298672289E-2,1.035416573E-1,-6.885978580E-1
2.242200269E1,7.391469181E-2,6.507241726E-1,-6.579018831E-1
2.243200268E1,3.695734590E-2,8.990409374E-1,-5.007568002E-1
2.244200269E1,-4.886921961E-3,8.836165667E-1,-3.578143120E-1
2.245200268E1,-2.809980139E-2,6.759223938E-1,-1.902845204E-1
2.246200268E1,-6.414085161E-3,3.956879675E-1,-3.741549700E-2
2.247200268E1,1.511891466E-2,1.650863290E-1,1.154535338E-1
2.248200268E1,9.773843922E-3,6.872233935E-3,2.255619913E-1
2.249200269E1,-5.497787148E-3,-1.514945775E-1,3.052799106E-1
2.250200268E1,-4.993823543E-2,-2.628247738E-1,3.507893682E-1
2.251200269E1,-1.056796908E-1,-3.101668358E-1,3.729332387E-1
2.252200268E1,-2.063197345E-1,-3.309362531E-1,3.843869567E-1
2.253200269E1,-3.156646192E-1,-3.216205537E-1,3.724750876E-1
2.254200268E1,-4.094324410E-1,-2.991712391E-1,3.118467033E-1
2.255200268E1,-4.789183438E-1,-2.680171132E-1,2.657263875E-1
2.256200269E1,-5.569564104E-1,-2.429716438E-1,1.963931769E-1
2.257200268E1,-6.374378800E-1,-2.168571651E-1,1.380555481E-1
2.258200269E1,-7.104362845E-1,-1.626428664E-1,9.300423414E-2
2.259200268E1,-7.652614117E-1,-1.072068512E-1,7.849618047E-2
2.260200269E1,-8.223773241E-1,-2.519819140E-2,7.376197726E-2
2.261200268E1,-8.553640842E-1,4.963280261E-2,3.955352306E-2
2.262200268E1,-8.530732989E-1,7.009678334E-2,6.566801574E-3
2.263200268E1,-8.170322776E-1,6.291911751E-2,-4.489859566E-2
2.264200268E1,-7.455610037E-1,9.773843922E-3,-8.277224004E-2
2.265200269E1,-6.401867867E-1,-4.566217586E-2,-1.307251602E-1
2.266200268E1,-5.526803136E-1,-7.208210230E-2,-1.383609772E-1
2.267200269E1,-4.338670373E-1,-4.520402849E-2,-1.522581577E-1
2.268200268E1,-3.248275816E-1,4.352414981E-2,-1.649336219E-1
2.269200269E1,-2.336559594E-1,1.284344196E-1,-1.446223408E-1
2.270200268E1,-1.754710376E-1,1.831068546E-1,-1.291979998E-1
2.271200268E1,-1.424843222E-1,2.099849284E-1,-1.000291854E-1
2.272200268E1,-1.739438772E-1,1.966986060E-1,-7.422012836E-2
2.273200268E1,-2.307543457E-1,1.554652005E-1,-3.497203439E-2
2.274200269E1,-2.916881442E-1,6.673702598E-2,-9.926560521E-2
2.275200268E1,-3.526219726E-1,-1.832595654E-2,-1.745547503E-1
2.276200269E1,-4.256203473E-1,-6.948592514E-2,-2.083050460E-1
2.277200268E1,-4.740314186E-1,-9.010262042E-2,-1.763873398E-1
2.278200269E1,-5.148066878E-1,-5.726861581E-2,-8.597928286E-2
2.279200268E1,-5.265658498E-1,7.360926270E-2,2.977968007E-2
2.280200268E1,-5.032002330E-1,2.034181207E-1,1.197295859E-1
2.281200269E1,-4.314235747E-1,3.683517575E-1,1.692096740E-1
2.282200268E1,-3.733913898E-1,5.329799056E-1,1.357648075E-1
2.283200269E1,-3.532328308E-1,6.429356933E-1,7.696902007E-2
2.284200268E1,-3.657555580E-1,6.536257863E-1,1.481348183E-2
2.285200269E1,-3.872885704E-1,4.781547785E-1,2.611448988E-2
2.286200268E1,-2.927571833E-1,2.153299935E-2,1.681406647E-1
2.287200268E1,-2.412917651E-2,-5.784893632E-1,3.791945875E-1
2.288200268E1,2.015855312E-1,-9.040805697E-1,5.497786999E-1
2.289200268E1,3.769038618E-1,-8.837692738E-1,6.626361012E-1
2.290200269E1,4.144720733E-1,-4.940372705E-1,7.008151412E-1
2.291200268E1,3.741549551E-1,-9.590584040E-2,7.211264372E-1
2.292200269E1,2.996293902E-1,4.228714705E-1,7.339546084E-1
2.293200268E1,2.504547536E-1,7.528914213E-1,6.737843752E-1
2.294200269E1,2.716823220E-1,7.696902156E-1,5.528330207E-1
2.295200268E1,2.834414840E-1,6.447682381E-1,4.590652287E-1
2.296200268E1,2.503020465E-1,4.604396820E-1,3.252857327E-1
2.297200269E1,1.560760736E-1,2.915354371E-1,1.696678251E-1
2.298200268E1,7.055493444E-2,1.504255682E-1,3.604105115E-2
2.299200269E1,6.169738993E-2,6.185010448E-2,-5.039638281E-2
2.300200268E1,1.172861308E-1,-3.863722831E-2,-1.188132912E-1
2.301200269E1,1.973094791E-1,-1.183551401E-1,-1.690569520E-1
2.302200268E1,2.649627924E-1,-1.569923609E-1,-2.229658216E-1
2.303200269E1,3.582724631E-1,-2.222022265E-1,-2.634356320E-1
2.304200268E1,4.590652287E-1,-2.739730477E-1,-2.796235681E-1
2.305200268E1,5.575672388E-1,-3.280346394E-1,-2.506074607E-1
2.306200269E1,6.304129362E-1,-3.543018401E-1,-2.336559594E-1
2.307200268E1,7.131851912E-1,-3.866777122E-1,-2.070833147E-1
2.308200269E1,7.812966704E-1,-4.021020532E-1,-1.841758788E-1
2.309200268E1,8.165740967E-1,-3.839288056E-1,-1.745547503E-1
2.310200269E1,8.275696635E-1,-3.402519524E-1,-1.527163088E-1
2.311200268E1,8.384125233E-1,-2.700024247E-1,-1.394299865E-1
2.312200268E1,8.373435140E-1,-1.852448881E-1,-1.090394482E-1
2.313200268E1,8.226827979E-1,-1.247692257E-1,-1.078177169E-1
2.314200268E1,8.017606139E-1,-3.283400834E-2,-1.371392459E-1
2.315200269E1,7.521278262E-1,3.726277873E-2,-1.004873365E-1
2.316200268E1,6.443101168E-1,1.241583601E-1,-5.024366826E-2
2.317200269E1,5.265658498E-1,2.194533348E-1,-2.306016348E-2
2.318200268E1,3.627012372E-1,3.339905739E-1,-1.298088674E-2
2.319200269E1,1.925752759E-1,4.471533597E-1,-3.940080851E-2
2.320200268E1,7.574728876E-2,5.482515693E-1,-8.429940045E-2
2.321200268E1,-2.290744707E-2,6.313292384E-1,-1.426370293E-1
2.322200269E1,-4.382958263E-2,6.177374721E-1,-1.925752759E-1
2.323200268E1,-5.986479297E-2,5.994115472E-1,-2.376265824E-1
2.324200269E1,-5.009094998E-2,5.268712640E-1,-2.325869352E-1
2.325200268E1,-1.939497143E-2,3.746131063E-1,-1.886046380E-1
2.326200269E1,5.268712714E-2,1.718058437E-1,-1.311833113E-1
2.327200268E1,1.553124934E-1,1.618792862E-2,-5.192354694E-2
2.328200269E1,2.441933751E-1,-6.322455406E-2,6.414085161E-3
2.329200268E1,3.087923825E-1,-5.681046844E-2,6.719517708E-2
2.330200268E1,3.161227703E-1,1.817324013E-2,8.048149943E-2
2.331200269E1,3.098613918E-1,1.209513173E-1,4.245513305E-2
2.332200268E1,3.239113092E-1,2.225076705E-1,-3.344487399E-2
2.333200269E1,2.883284092E-1,2.087631971E-1,-1.162171140E-1
2.334200268E1,2.054034323E-1,1.490511149E-1,-2.000583708E-1
2.335200269E1,1.637118906E-1,9.789115191E-2,-2.900082767E-1
2.336200268E1,1.605048478E-1,-1.267545391E-2,-4.595233798E-1
2.337200268E1,1.415680200E-1,-2.105957866E-1,-6.507241726E-1
2.338200268E1,4.260785133E-2,-4.060726762E-1,-8.025242090E-1
2.339200268E1,-4.703662544E-2,-4.899139404E-1,-7.984008789E-1
2.340200269E1,-7.101308554E-2,-4.266893864E-1,-7.069237828E-1
2.341200268E1,1.114829071E-2,-1.754710376E-1,-5.135849714E-1
2.342200269E1,1.466076523E-1,1.036943719E-1,-3.181080818E-1
2.343200268E1,3.817907870E-1,4.161519408E-1,-8.643743396E-2
2.344200269E1,5.653557777E-1,5.572618246E-1,2.260201424E-2
2.345200268E1,5.766568184E-1,4.327980280E-1,5.681046844E-2
2.346200268E1,4.688390791E-1,2.522873580E-1,7.345654815E-2
2.347200269E1,3.220787048E-1,-1.084285788E-2,5.849034712E-2
2.348200268E1,1.777617931E-1,-2.206750661E-1,3.252857551E-2
2.349200269E1,5.650503561E-2,-3.746131063E-1,3.940080851E-2
2.350200268E1,-1.725694351E-2,-4.413501322E-1,7.147123665E-2
2.351200269E1,-1.117883399E-1,-3.434589803E-1,1.204931661E-1
2.352200268E1,-2.122756690E-1,-1.620320082E-1,2.095267773E-1
2.353200269E1,-2.593123019E-1,-3.130684420E-2,2.742784917E-1
2.354200268E1,-2.822197378E-1,4.978551716E-2,3.413209617E-1
2.355200268E1,-2.675589919E-1,2.214386500E-2,3.596469164E-1
2.356200269E1,-2.443460971E-1,-5.528330430E-2,3.535382748E-1
2.357200268E1,-2.335032374E-1,-1.000291854E-1,3.437644243E-1
2.358200269E1,-2.153300047E-1,-1.508837193E-1,3.291036487E-1
2.359200268E1,-2.118175179E-1,-1.970040351E-1,2.913827300E-1
2.360200269E1,-2.386955917E-1,-2.116648108E-1,2.634356320E-1
2.361200268E1,-2.629774809E-1,-2.020436823E-1,2.391537428E-1
2.362200268E1,-2.935207486E-1,-1.841758788E-1,2.002110779E-1
2.363200268E1,-3.349068761E-1,-1.867720485E-1,1.783726513E-1
2.364200268E1,-3.654501438E-1,-1.783726513E-1,1.528690308E-1
2.365200269E1,-3.813326359E-1,-1.615738571E-1,1.394299865E-1
2.366200268E1,-3.668245673E-1,-1.470658034E-1,1.174388453E-1
2.367200269E1,-3.391829133E-1,-1.350012124E-1,7.696902007E-2
2.368200268E1,-3.089450896E-1,-1.131627858E-1,6.337726861E-2
2.369200269E1,-2.470949888E-1,-1.046106741E-1,4.367686436E-2
2.370200268E1,-2.035708427E-1,-1.032362282E-1,1.786780916E-2
2.371200268E1,-1.841758788E-1,-1.020144969E-1,9.315694682E-3
2.372200269E1,-1.672243625E-1,-8.628471941E-2,-6.719517522E-3
2.373200268E1,-1.540907621E-1,-6.933320314E-2,-2.626720630E-2
2.374200269E1,-1.554652005E-1,-6.093380973E-2,-5.436700583E-2
2.375200268E1,-1.566869318E-1,-5.497787148E-2,-7.513642311E-2
2.376200269E1,-1.811215430E-1,-9.162978269E-3,-1.044579595E-1
2.377200268E1,-2.298380435E-1,6.811147183E-2,-1.238529310E-1
2.378200269E1,-3.124575615E-1,1.113301888E-1,-1.296561509E-1
2.379200268E1,-4.156937897E-1,1.328631938E-1,-1.256855279E-1
2.380200268E1,-5.201517344E-1,1.979203373E-1,-1.278235465E-1
2.381200269E1,-5.479460955E-1,3.043636084E-1,-7.666359097E-2
2.382200268E1,-5.305364728E-1,3.966042697E-1,7.330383174E-3
2.383200269E1,-5.154175758E-1,4.587597847E-1,1.169806942E-1
2.384200268E1,-4.993823469E-1,4.721988440E-1,1.937969923E-1
2.385200269E1,-4.650211632E-1,4.386012554E-1,2.486221492E-1
2.386200268E1,-3.775147200E-1,3.808744848E-1,2.532036304E-1
2.387200268E1,-2.231185287E-1,2.979495227E-1,2.893974185E-1
2.388200268E1,-7.681630552E-2,1.244637966E-1,4.051563740E-1
2.389200268E1,1.172861308E-1,-2.182316035E-1,5.635231733E-1
2.390200269E1,2.809980214E-1,-4.798346460E-1,7.318165898E-1
2.391200268E1,3.706424832E-1,-6.557638645E-1,8.856018782E-1
2.392200269E1,2.603813112E-1,-6.632469296E-1,9.347765446E-1
2.393200268E1,9.117163718E-2,-4.387539625E-1,8.874344826E-1
2.394200269E1,-1.698205322E-1,1.455386430E-1,7.263187766E-1
2.395200268E1,-3.704897761E-1,6.780604124E-1,5.175555944E-1
2.396200268E1,-4.459316432E-1,8.877398968E-1,2.831360400E-1
2.397200269E1,-4.744895697E-1,8.145887852E-1,1.186605766E-1
2.398200268E1,-5.357288122E-1,5.768095255E-1,-1.252273750E-2
2.399200269E1,-5.771149397E-1,2.861903608E-1,-8.628471941E-2
2.400200268E1,-5.904012322E-1,1.618792862E-2,-1.200350225E-1
2.401200269E1,-5.623014569E-1,-1.398881376E-1,-1.345430762E-1
2.402200268E1,-4.822781086E-1,-2.559525371E-1,-1.626428664E-1
2.403200269E1,-3.720169365E-1,-2.605340183E-1,-1.973094791E-1
2.404200268E1,-2.654209435E-1,-2.105957866E-1,-2.208277881E-1
2.405200268E1,-1.128573567E-1,-9.056077152E-2,-2.851213515E-1
2.406200269E1,3.481931984E-2,4.291328415E-2,-3.468187451E-1
2.407200268E1,1.522581577E-1,1.035416573E-1,-3.828597963E-1
2.408200269E1,2.212859392E-1,1.171334088E-1,-4.050036669E-1
2.409200268E1,2.771801054E-1,7.971791178E-2,-4.222606122E-1
2.410200269E1,2.955060601E-1,1.679879427E-2,-4.039346576E-1
2.411200268E1,2.944370508E-1,-1.817324013E-2,-3.709479272E-1
2.412200268E1,2.861903608E-1,-5.192354694E-2,-3.439171314E-1
2.413200268E1,2.950479090E-1,-1.026253626E-1,-2.852740586E-1
2.414200268E1,3.207042515E-1,-1.204931661E-1,-2.292271852E-1
2.415200269E1,3.318525553E-1,-1.215621829E-1,-1.866193265E-1
2.416200268E1,3.358231783E-1,-1.093448773E-1,-1.317941695E-1
2.417200269E1,3.349068761E-1,-7.406741381E-2,-7.559457421E-2
2.418200268E1,3.301726580E-1,-4.138612002E-2,-4.520402849E-2
2.419200269E1,3.097086847E-1,-3.817907767E-3,-4.886921961E-3
2.420200268E1,2.661845386E-1,5.558873713E-2,4.886921868E-2
2.421200268E1,2.067778856E-1,1.087340117E-1,7.834346592E-2
2.422200269E1,1.667662114E-1,1.631010175E-1,9.300423414E-2
2.423200268E1,1.206458881E-1,2.076941878E-1,8.933904022E-2
2.424200269E1,9.376781434E-2,2.438879460E-1,7.849618047E-2
2.425200268E1,9.972374886E-2,2.437352389E-1,3.451388702E-2
2.426200269E1,1.168279797E-1,2.014328092E-1,5.406157300E-2
2.427200268E1,1.571450830E-1,1.073595658E-1,8.704829961E-2
2.428200269E1,1.901318133E-1,1.069014193E-3,1.298088580E-1
2.429200268E1,2.353358418E-1,-9.437867999E-2,1.601994038E-1
2.430200268E1,3.083342314E-1,-1.388191283E-1,1.893682331E-1
2.431200269E1,3.897320330E-1,-1.348485053E-1,2.086104751E-1
2.432200268E1,3.979786932E-1,-3.054326167E-3,1.692096740E-1
2.433200269E1,3.549126983E-1,1.672243625E-1,9.834930301E-2
2.434200268E1,2.935207486E-1,3.761402667E-1,-1.527163107E-2
2.435200269E1,2.501493096E-1,5.558874011E-1,-1.423316002E-1
2.436200268E1,2.133446932E-1,6.258314252E-1,-2.057088763E-1
2.437200268E1,2.000583708E-1,6.899722815E-1,-1.861611903E-1
2.438200268E1,1.905899495E-1,6.983717084E-1,-1.594358236E-1
2.439200268E1,2.293798923E-1,5.242751241E-1,-1.798998117E-1
2.440200269E1,2.419026345E-1,1.249219403E-1,-1.853975952E-1
2.441200268E1,2.165517360E-1,-3.362813294E-1,-2.273945808E-1
2.442200269E1,1.737911552E-1,-9.056077003E-1,-4.043927789E-1
2.443200268E1,1.201877370E-1,-1.300532103E0,-5.134322643E-1
2.444200269E1,9.346238524E-2,-1.384067893E0,-5.265658498E-1
2.445200268E1,1.539380401E-1,-1.144303322E0,-5.137376785E-1
2.446200268E1,2.785545588E-1,-6.139195561E-1,-5.016731024E-1
2.447200269E1,4.138612151E-1,2.046398632E-2,-5.300782919E-1
2.448200268E1,4.813618064E-1,4.744895697E-1,-5.358815193E-1
2.449200269E1,4.269948006E-1,8.339837790E-1,-4.253149331E-1
2.450200268E1,2.869539559E-1,9.246972799E-1,-2.565633953E-1
2.451200269E1,1.554652005E-1,8.098546267E-1,-9.957103431E-2
2.452200268E1,1.039998084E-1,6.236934066E-1,7.024950348E-3
2.453200269E1,3.695734590E-2,3.999640048E-1,1.492038369E-1
2.454200268E1,-4.123340547E-2,2.185370475E-1,2.400700450E-1
2.455200268E1,-9.926560521E-2,8.765916526E-2,2.771801054E-1
2.456200269E1,-1.815796942E-1,-5.039638281E-2,3.045163155E-1
2.457200268E1,-2.687807083E-1,-1.679879427E-1,3.233004212E-1
2.458200269E1,-3.488040566E-1,-2.565633953E-1,3.249803185E-1
2.459200268E1,-3.924809098E-1,-3.171917796E-1,2.996293902E-1
2.460200269E1,-4.460843503E-1,-3.853032589E-1,2.510656118E-1
2.461200268E1,-4.995350540E-1,-4.473060668E-1,2.208277881E-1
2.462200268E1,-5.506950021E-1,-4.935791194E-1,1.808161139E-1
2.463200268E1,-5.920811296E-1,-4.996877611E-1,1.591303945E-1
2.464200268E1,-6.444628239E-1,-4.830417037E-1,1.348485053E-1
2.465200269E1,-7.052439451E-1,-4.554000497E-1,1.081231460E-1
2.466200268E1,-7.333437204E-1,-4.302018583E-1,8.261952549E-2
2.467200269E1,-7.480044961E-1,-3.831652105E-1,6.551529467E-2
2.468200268E1,-7.240280509E-1,-3.419318199E-1,3.237585723E-2
2.469200269E1,-6.501133442E-1,-2.729040384E-1,-2.138028387E-3
2.470200268E1,-5.751296282E-1,-2.231185287E-1,-4.153883830E-2
2.471200268E1,-4.673119187E-1,-1.635591686E-1,-7.498370856E-2
2.472200269E1,-3.546072841E-1,-1.052215397E-1,-9.254608303E-2
2.473200268E1,-2.564106882E-1,-5.406157300E-2,-9.178250283E-2
2.474200269E1,-1.507309973E-1,-4.581489484E-4,-7.284568250E-2
2.475200268E1,-6.078109145E-2,5.665775016E-2,-4.398229718E-2
2.476200269E1,1.466076635E-2,9.453139454E-2,-1.496619824E-2
2.477200268E1,5.833763257E-2,1.430951804E-1,-1.832595794E-3
2.478200269E1,6.918048859E-2,1.939497143E-1,9.010262787E-3
2.479200268E1,5.100724846E-2,2.193006277E-1,-3.054326167E-3
2.480200268E1,-2.596177394E-3,2.081523389E-1,-4.321871698E-2
2.481200269E1,-8.659014851E-2,1.594358236E-1,-7.941248268E-2
2.482200268E1,-1.960877478E-1,6.566801667E-2,-1.447750628E-1
2.483200269E1,-2.848159075E-1,-1.466076635E-2,-2.052507252E-1
2.484200268E1,-3.478877544E-1,-8.704829961E-3,-1.843285859E-1
2.485200269E1,-3.961461186E-1,6.276640296E-2,-1.049161032E-1
2.486200268E1,-4.077525437E-1,1.634064466E-1,-1.374446787E-3
2.487200268E1,-3.564398587E-1,2.316706479E-1,9.239336848E-2
2.488200268E1,-2.845104933E-1,2.597704530E-1,1.518000066E-1
2.489200268E1,-2.020436823E-1,3.544545472E-1,1.611157060E-1
2.490200269E1,-1.501201391E-1,4.973970354E-1,1.423316002E-1
2.491200268E1,-1.502728462E-1,5.832235813E-1,1.105666086E-1
2.492200269E1,-2.171625942E-1,5.732970238E-1,8.521570265E-2
2.493200268E1,-3.028364480E-1,3.420845270E-1,1.505782902E-1
2.494200269E1,-2.620611787E-1,-1.088867337E-1,2.218967974E-1
2.495200268E1,-1.556179225E-1,-5.198463202E-1,3.087923825E-1
2.496200268E1,-1.267545391E-2,-8.518515825E-1,4.271475375E-1
2.497200269E1,4.825835302E-2,-8.975137472E-1,4.746423066E-1
2.498200268E1,5.054909736E-2,-6.554583907E-1,4.815145433E-1
2.499200269E1,2.901609987E-3,-2.936734557E-1,4.957171381E-1
2.500200268E1,-7.376197726E-2,2.470949888E-1,5.561928153E-1
2.501200269E1,-1.343903542E-1,7.298312783E-1,6.288857460E-1
2.502200268E1,-7.681630552E-2,9.547823668E-1,5.306891799E-1
2.503200269E1,1.527163113E-4,8.808676600E-1,4.011857510E-1
2.504200268E1,6.398813426E-2,6.580545902E-1,2.622139156E-1
2.505200268E1,6.719517708E-2,3.623957932E-1,1.149953827E-1
2.506200269E1,6.673702598E-2,1.721112877E-1,-7.941247895E-3
2.507200268E1,9.056077152E-2,-2.061670274E-2,-1.420261711E-1
2.508200269E1,1.606575549E-1,-1.524108797E-1,-2.029599845E-1
2.509200268E1,2.286163121E-1,-2.247984111E-1,-2.263255715E-1
2.510200269E1,2.904664278E-1,-2.199114859E-1,-2.545780838E-1
2.511200268E1,3.640756905E-1,-1.556179225E-1,-3.061962128E-1
2.512200268E1,4.259257913E-1,-1.010981947E-1,-3.284927905E-1
2.513200269E1,4.731151462E-1,-7.070764899E-2,-3.287982047E-1
2.514200268E1,5.022839308E-1,-7.422012836E-2,-3.214678466E-1
2.515200269E1,5.050328374E-1,-1.200350225E-1,-2.774855494E-1
2.516200268E1,5.148066878E-1,-1.684460938E-1,-2.616030276E-1
2.517200269E1,5.259549618E-1,-2.083050460E-1,-2.469422817E-1
2.518200268E1,5.516113043E-1,-2.431243658E-1,-2.067778856E-1
2.519200269E1,5.711590052E-1,-2.272418737E-1,-1.715004146E-1
2.520200268E1,5.677992702E-1,-1.788308024E-1,-1.275181174E-1
2.521200268E1,5.606215596E-1,-1.169806942E-1,-9.712757170E-2
2.522200269E1,5.300782919E-1,-3.481931984E-2,-1.069014147E-1
2.523200268E1,4.718934000E-1,4.245513305E-2,-7.269296050E-2
2.524200269E1,4.077525437E-1,9.560041130E-2,-3.222314268E-2
2.525200268E1,3.168863356E-1,1.595885456E-1,7.024950348E-3
2.526200269E1,2.211332172E-1,2.223549485E-1,3.894266114E-2
2.527200268E1,1.154535338E-1,2.680171132E-1,4.535674304E-2
2.528200269E1,4.138612002E-2,2.895501256E-1,2.489275858E-2
2.529200268E1,-2.794708498E-2,3.135266006E-1,7.941247895E-3
2.530200268E1,-5.222897977E-2,3.423899710E-1,1.542434748E-2
2.531200269E1,-4.718934000E-2,2.941316068E-1,3.497203439E-2
2.532200268E1,-2.871066704E-2,2.131919712E-1,8.017606288E-2
2.533200269E1,9.315694682E-3,5.024366826E-2,1.461495161E-1
2.534200268E1,9.697485715E-2,-1.467603743E-1,1.485929638E-1
2.535200269E1,1.638645977E-1,-2.820670307E-1,1.437060535E-1
2.536200268E1,2.038762718E-1,-3.364340365E-1,1.363756657E-1
2.537200268E1,1.744020283E-1,-2.568688393E-1,8.628471941E-2
2.538200269E1,9.483683109E-2,-1.122464910E-1,-2.596177347E-2
2.539200268E1,3.833179548E-2,7.177666761E-3,-1.443169117E-1
2.540200269E1,-1.847867295E-2,1.262963861E-1,-2.955060601E-1
2.541200268E1,-6.017022580E-2,2.446515262E-1,-3.614795208E-1
2.542200269E1,-4.169155285E-2,3.743076921E-1,-2.788599730E-1
2.543200268E1,8.399397135E-3,3.866777122E-1,-2.215913683E-1
2.544200269E1,9.285151958E-2,2.263255715E-1,-1.288925707E-1
2.545200268E1,1.311833113E-1,-1.182024255E-1,-4.428773001E-2
2.546200268E1,1.620320082E-1,-4.931209683E-1,-1.817324013E-2
2.547200269E1,1.983784884E-1,-9.300423265E-1,-8.842274547E-2
2.548200268E1,2.211332172E-1,-1.166141748E0,-2.040289938E-1
2.549200269E1,2.619084716E-1,-1.073137522E0,-2.872593701E-1
2.550200268E1,3.048217595E-1,-8.373435140E-1,-4.037819207E-1
2.551200269E1,3.646865487E-1,-3.993531466E-1,-4.925101101E-1
2.552200268E1,3.888157308E-1,4.306599870E-2,-6.678284407E-1
2.553200269E1,3.164281845E-1,4.818199575E-1,-7.342600226E-1
2.554200268E1,2.185370475E-1,6.646214128E-1,-6.255260110E-1
2.555200268E1,1.078177169E-1,5.945246220E-1,-4.590652287E-1
2.556200269E1,-2.092213556E-2,4.567744732E-1,-2.557998300E-1
2.557200268E1,-9.392052889E-2,2.961169183E-1,-6.734789163E-2
2.558200269E1,-1.302670091E-1,5.329799280E-2,1.357648075E-1
2.559200268E1,-1.172861308E-1,-1.470658034E-1,2.641992271E-1
2.560200269E1,-9.865473956E-2,-2.412917763E-1,3.277291954E-1
2.561200268E1,-1.119410545E-1,-2.400700450E-1,3.558290005E-1
2.562200268E1,-1.689042449E-1,-1.760819107E-1,3.631593883E-1
2.563200269E1,-2.443460971E-1,-1.363756657E-1,3.500257730E-1
2.564200268E1,-2.773328125E-1,-1.547016203E-1,3.123048544E-1
2.565200269E1,-2.846632004E-1,-2.008219510E-1,2.648100853E-1
2.566200268E1,-3.006984293E-1,-2.614503205E-1,2.295326144E-1
2.567200269E1,-3.202461004E-1,-2.871066630E-1,1.760819107E-1
2.568200268E1,-3.568980098E-1,-2.958115041E-1,1.444696337E-1
2.569200269E1,-4.225660264E-1,-2.742784917E-1,1.079704314E-1
2.570200268E1,-4.957171381E-1,-2.347249687E-1,6.673702598E-2
2.571200268E1,-5.832235813E-1,-1.721112877E-1,4.016438872E-2
2.572200269E1,-6.272059083E-1,-1.372919679E-1,1.099557430E-2
2.573200268E1,-6.310238242E-1,-1.107193232E-1,-2.199114859E-2
2.574200269E1,-5.765040517E-1,-1.046106741E-1,-4.550946131E-2
2.575200268E1,-5.025894046E-1,-1.007927656E-1,-6.032294407E-2
2.576200269E1,-3.995058835E-1,-9.453139454E-2,-9.483683109E-2
2.577200268E1,-2.916881442E-1,-8.811730891E-2,-1.185078546E-1
2.578200269E1,-1.788308024E-1,-7.819075137E-2,-1.238529310E-1
2.579200268E1,-8.765916526E-2,-8.155050874E-2,-1.058324054E-1
2.580200268E1,-5.955935922E-3,-5.681046844E-2,-3.665191308E-2
2.581200269E1,6.322455406E-2,-2.031126991E-2,-2.229658142E-2
2.582200268E1,8.521570265E-2,2.825251780E-2,4.428773187E-3
2.583200269E1,8.277224004E-2,9.117163718E-2,2.993239649E-2
2.584200268E1,7.803803682E-2,1.046106741E-1,4.948008433E-2
2.585200269E1,6.826419383E-2,8.277224004E-2,4.948008433E-2
2.586200268E1,5.497787148E-2,6.688974798E-2,3.130684420E-2
2.587200268E1,5.360342562E-2,3.970623948E-3,1.435533352E-2
2.588200269E1,7.681630552E-2,-1.047633886E-1,2.290744707E-2
2.589200268E1,5.635231733E-2,-1.641700417E-1,4.505131021E-2
2.590200269E1,1.282817032E-2,-1.762346178E-1,6.841690838E-2
2.591200268E1,-5.192354787E-3,-1.217148975E-1,1.246165112E-1
2.592200269E1,1.924225502E-2,-2.351831272E-2,1.511891484E-1
2.593200268E1,4.841107130E-2,6.368270516E-2,1.850921661E-1
2.594200269E1,4.474587739E-2,1.302670091E-1,2.020436823E-1
2.595200268E1,3.207042580E-3,2.451096773E-1,1.739438772E-1
2.596200268E1,-5.421429127E-2,3.692680299E-1,1.142318025E-1
2.597200269E1,-1.296561509E-1,3.920227587E-1,8.628471941E-2
2.598200268E1,-2.533563673E-1,2.597704530E-1,8.460483700E-2
2.599200269E1,-2.715296149E-1,-7.620543987E-2,2.693915665E-1
2.600200268E1,-1.484402567E-1,-6.148358583E-1,4.920519590E-1
2.601200269E1,4.688390717E-2,-1.015563488E0,6.456845403E-1
2.602200268E1,2.524400651E-1,-1.227839112E0,6.953173876E-1
2.603200269E1,3.019201458E-1,-1.065501690E0,6.606507897E-1
2.604200268E1,2.199114859E-1,-6.557638645E-1,6.200281978E-1
2.605200268E1,1.043052375E-1,-1.490511149E-1,6.342308521E-1
2.606200269E1,-5.161811411E-2,5.729916096E-1,6.641632318E-1
2.607200268E1,-1.287398487E-1,1.045648575E0,6.075055003E-1
2.608200269E1,-9.804387391E-2,1.150564671E0,4.486805201E-1
2.609200268E1,-5.528330430E-2,9.384417534E-1,2.475531399E-1
2.610200269E1,-2.672535367E-2,5.398521423E-1,5.894849449E-2
2.611200268E1,-8.857546374E-3,1.524108797E-1,-8.338310570E-2
2.612200268E1,1.404990070E-2,-7.040221989E-2,-1.464549452E-1
2.613200269E1,6.872233748E-2,-2.614503205E-1,-1.597412676E-1
2.614200268E1,1.658499092E-1,-3.773620129E-1,-1.941024363E-1
2.615200269E1,3.065016270E-1,-3.952298164E-1,-2.299907655E-1
2.616200268E1,4.276056588E-1,-3.538436890E-1,-2.793181241E-1
2.617200269E1,5.619960427E-1,-2.677116990E-1,-3.239113092E-1
2.618200268E1,6.612616181E-1,-1.985312104E-1,-3.549126983E-1
2.619200269E1,7.012733221E-1,-1.681406647E-1,-3.648392558E-1
2.620200268E1,7.014260292E-1,-1.886046380E-1,-3.440698385E-1
2.621200268E1,6.772968173E-1,-2.878702581E-1,-3.119994104E-1
2.622200269E1,6.655376554E-1,-3.761402667E-1,-2.570215464E-1
2.623200268E1,6.742424965E-1,-4.315762818E-1,-2.240348309E-1
2.624200269E1,6.939429045E-1,-4.326453209E-1,-1.898263693E-1
2.625200268E1,7.096726894E-1,-3.793473244E-1,-1.679879427E-1
2.626200269E1,7.122688890E-1,-3.174972236E-1,-1.498146951E-1
2.627200268E1,6.806566119E-1,-2.134974003E-1,-1.230893433E-1
2.628200269E1,6.126978397E-1,-8.429940045E-2,-1.145372316E-1
2.629200268E1,5.302310586E-1,5.726861581E-2,-6.078109145E-2
2.630200268E1,4.550946057E-1,1.611157060E-1,-2.641992271E-2
2.631200269E1,3.567453027E-1,2.794708610E-1,-6.108652451E-4
2.632200268E1,2.061670274E-1,4.037819207E-1,7.024950348E-3
2.633200269E1,4.444044828E-2,5.290092826E-1,-2.794708498E-2
2.634200268E1,-6.872233748E-2,6.288857460E-1,-7.284568250E-2
2.635200269E1,-1.685988009E-1,7.046330571E-1,-1.336267740E-1
2.636200268E1,-2.247984111E-1,7.018841505E-1,-1.944078654E-1
2.637200268E1,-2.649627924E-1,6.496551633E-1,-2.199114859E-1
2.638200269E1,-2.770273983E-1,5.636758804E-1,-2.367102802E-1
2.639200268E1,-2.380847335E-1,4.428772926E-1,-2.342668176E-1
2.640200269E1,-1.649336219E-1,2.906191349E-1,-2.025018334E-1
2.641200268E1,-7.849618047E-2,1.736384481E-1,-1.588249654E-1
2.642200269E1,1.053742506E-2,8.949175477E-2,-9.300423414E-2
2.643200268E1,6.307183951E-2,9.941831976E-2,-4.444044828E-2
2.644200269E1,6.169738993E-2,1.586722434E-1,-4.825835302E-2
2.645200268E1,2.504547499E-2,2.251038402E-1,-9.086620808E-2
2.646200268E1,-2.382374369E-2,3.130684495E-1,-1.444696337E-1
2.647200269E1,-4.581489414E-2,4.037819207E-1,-1.568396538E-1
2.648200268E1,-1.908953860E-2,4.341724813E-1,-1.240056455E-1
2.649200269E1,5.604688451E-2,3.471241891E-1,-1.644754708E-1
2.650200268E1,1.107193232E-1,8.949175477E-2,-1.983784884E-1
2.651200269E1,1.438587606E-1,-3.121521473E-1,-2.222022265E-1
2.652200268E1,1.082758680E-1,-6.635523438E-1,-3.460551500E-1
2.653200269E1,9.162978968E-4,-9.789115787E-1,-5.024366379E-1
2.654200268E1,-4.306599870E-2,-1.085812926E0,-5.900958180E-1
2.655200268E1,-1.527163084E-3,-9.644035101E-1,-5.244278312E-1
2.656200269E1,7.254024595E-2,-7.173085213E-1,-4.714352489E-1
2.657200268E1,2.047925740E-1,-2.350303978E-1,-3.885102868E-1
2.658200269E1,4.535674453E-1,2.486221492E-1,-3.219259977E-1
2.659200268E1,6.120869517E-1,6.229298115E-1,-3.462078869E-1
2.660200269E1,5.879577994E-1,8.906415105E-1,-2.538145185E-1
2.661200268E1,4.780020416E-1,7.730499506E-1,-1.715004146E-1
2.662200268E1,3.587306142E-1,5.019785166E-1,-6.811147183E-2
2.663200269E1,2.587014437E-1,2.599231601E-1,4.367686436E-2
2.664200268E1,1.747074574E-1,4.841107130E-2,1.992947906E-1
2.665200269E1,1.243110746E-1,-6.887505949E-2,2.997821271E-1
2.666200268E1,8.949175477E-2,-1.171334088E-1,3.524692357E-1
2.667200269E1,5.436700583E-2,-1.064432710E-1,3.610213697E-1
2.668200268E1,-1.725694351E-2,-5.818491429E-2,3.672827184E-1
2.669200269E1,-1.035416573E-1,-1.481348183E-2,3.785837293E-1
2.670200268E1,-1.715004146E-1,-1.634064503E-2,3.752239645E-1
2.671200268E1,-2.212859392E-1,-7.467827946E-2,3.400992155E-1
2.672200269E1,-2.420553565E-1,-1.424843222E-1,3.255911767E-1
2.673200268E1,-2.738203406E-1,-1.814269722E-1,2.794708610E-1
2.674200269E1,-3.090978265E-1,-1.828014255E-1,2.527455091E-1
2.675200268E1,-3.735440969E-1,-1.371392459E-1,2.247984111E-1
2.676200269E1,-4.416555762E-1,-6.963863969E-2,2.078468949E-1
2.677200268E1,-4.819726646E-1,-3.711006418E-2,1.835650057E-1
2.678200269E1,-5.039638281E-1,-3.008511290E-2,1.481348276E-1
2.679200268E1,-4.859432876E-1,-3.604105115E-2,1.102611795E-1
2.680200268E1,-4.413501322E-1,-1.313360315E-2,5.513058975E-2
2.681200269E1,-3.953825235E-1,1.954768784E-2,9.773843922E-3
2.682200268E1,-3.205515444E-1,5.589416996E-2,-4.902193695E-2
2.683200269E1,-2.286163121E-1,1.165225431E-1,-1.117883399E-1
2.684200268E1,-1.207986027E-1,1.760819107E-1,-1.317941695E-1
2.685200269E1,-3.222314268E-2,2.125810981E-1,-1.296561509E-1
2.686200268E1,5.543602258E-2,2.081523389E-1,-9.101892263E-2
2.687200268E1,1.259909570E-1,1.843285859E-1,-6.551529467E-2
2.688200269E1,1.612684280E-1,1.663080603E-1,-4.367686436E-2
2.689200268E1,1.663080603E-1,1.240056455E-1,-2.412917651E-2
2.690200269E1,1.336267740E-1,7.681630552E-2,-1.053742506E-2
2.691200268E1,4.382958263E-2,2.092213556E-2,7.024950348E-3
2.692200269E1,-4.596760869E-2,-2.779436857E-2,-1.069014193E-3
2.693200268E1,-1.298088580E-1,-1.226311997E-1,-3.604105115E-2
2.694200269E1,-2.052507252E-1,-1.701259762E-1,-8.689557761E-2
2.695200268E1,-2.767219543E-1,-1.122464910E-1,-5.635231733E-2
2.696200268E1,-3.225368559E-1,-5.650503561E-3,2.428189293E-2
2.697200269E1,-3.414736688E-1,1.556179225E-1,1.571450830E-1
2.698200268E1,-3.239113092E-1,2.576324046E-1,2.654209435E-1
2.699200269E1,-2.898555696E-1,2.747366428E-1,3.116939962E-1
2.700200268E1,-2.535090744E-1,2.797762752E-1,2.993239760E-1
2.701200269E1,-2.319760770E-1,2.747366428E-1,2.345722616E-1
2.702200268E1,-2.564106882E-1,2.321287990E-1,1.785253733E-1
2.703200269E1,-3.074179292E-1,1.594358236E-1,1.740965992E-1
2.704200268E1,-2.799290121E-1,-1.172861308E-1,2.707660198E-1
2.705200268E1,-5.543602258E-2,-5.529857874E-1,4.292855561E-1
2.706200269E1,2.382374406E-1,-8.831584454E-1,6.007859707E-1
2.707200268E1,4.364632070E-1,-9.647089243E-1,6.551529765E-1
2.708200269E1,5.526803136E-1,-8.810204268E-1,5.936083198E-1
2.709200268E1,4.474588037E-1,-6.589708924E-1,4.960225821E-1
2.710200269E1,2.590068579E-1,-3.862195611E-1,4.535674453E-1
2.711200268E1,1.343903504E-2,-2.138028387E-3,4.573853612E-1
2.712200268E1,-2.092213482E-1,4.483750761E-1,4.379903674E-1
2.713200269E1,-3.640756905E-1,7.127270103E-1,3.393356502E-1
2.714200268E1,-4.130976200E-1,7.243334651E-1,2.393064648E-1
2.715200269E1,-4.159992337E-1,5.945246220E-1,1.212567538E-1
2.716200268E1,-3.572034538E-1,4.091269970E-1,-2.382374369E-2
2.717200269E1,-2.811507285E-1,1.343903542E-1,-1.579086632E-1
2.718200268E1,-2.193006277E-1,-7.360926270E-2,-2.029599845E-1
2.719200269E1,-1.475239545E-1,-2.985603809E-1,-2.296853364E-1
2.720200268E1,-5.406157300E-2,-4.011857510E-1,-2.432770878E-1
2.721200268E1,1.496619824E-2,-4.253149331E-1,-2.788599730E-1
2.722200269E1,1.191187203E-1,-3.863722682E-1,-3.147483170E-1
2.723200268E1,2.197587788E-1,-3.329215646E-1,-3.359758854E-1
2.724200269E1,3.107776940E-1,-3.095559776E-1,-3.240640163E-1
2.725200268E1,3.801108897E-1,-3.141374588E-1,-2.938261926E-1
2.726200269E1,4.347833395E-1,-3.236058652E-1,-2.806925774E-1
2.727200268E1,4.810563922E-1,-3.306308091E-1,-2.429716438E-1
2.728200269E1,5.067127347E-1,-3.425426781E-1,-2.197587788E-1
2.729200268E1,5.325217843E-1,-3.399465084E-1,-1.747074574E-1
2.730200268E1,5.642867684E-1,-3.191770911E-1,-1.298088580E-1
2.731200269E1,5.691736937E-1,-2.440406680E-1,-9.819658846E-2
2.732200268E1,5.510004759E-1,-1.435533315E-1,-7.635815442E-2
2.733200269E1,4.912883639E-1,8.704829961E-3,-8.246681094E-2
2.734200268E1,4.063780904E-1,1.476766765E-1,-6.169738993E-2
2.735200269E1,3.092505336E-1,2.478585690E-1,-3.588833287E-2
2.736200268E1,2.267837226E-1,2.912299931E-1,-1.481348183E-2
2.737200268E1,1.261436790E-1,3.393356502E-1,-2.290744567E-3
2.738200269E1,4.734205548E-3,3.825543523E-1,4.581489484E-4
2.739200268E1,-9.865473956E-2,4.159992337E-1,-1.756237634E-2
2.740200269E1,-2.273945808E-1,4.700607955E-1,-5.253441259E-2
2.741200268E1,-3.358231783E-1,5.251913667E-1,-9.254608303E-2
2.742200269E1,-3.880521357E-1,5.335907936E-1,-9.957103431E-2
2.743200268E1,-3.770565689E-1,4.935791194E-1,-1.081231460E-1
2.744200269E1,-3.550654352E-1,4.114177525E-1,-1.069014147E-1
2.745200268E1,-3.089450896E-1,2.759583890E-1,-1.069014147E-1
2.746200268E1,-2.354885489E-1,1.033889428E-1,-2.993239649E-2
2.747200269E1,-1.708895564E-1,-4.031710699E-2,3.054326167E-3
2.748200268E1,-7.101308554E-2,-1.789835095E-1,4.306599870E-2
2.749200269E1,1.664607786E-2,-2.438879460E-1,9.789115191E-2
2.750200268E1,5.436700583E-2,-2.267837226E-1,1.232420653E-1
2.751200269E1,3.848451003E-2,-1.362229437E-1,1.024726480E-1
2.752200268E1,-2.641992271E-2,2.794708498E-2,3.283400834E-2
2.753200269E1,-9.972374886E-2,2.429716438E-1,-3.191770986E-2
2.754200269E1,-1.182024255E-1,4.062253833E-1,-5.650503561E-2
2.755200268E1,-1.088867337E-1,5.525276065E-1,-9.941831976E-2
2.756200269E1,-8.307767659E-2,6.120869517E-1,-4.963280261E-2
2.757200268E1,-1.634064503E-2,5.662720799E-1,-4.856378585E-2
2.758200269E1,6.505715102E-2,3.764457107E-1,-6.933320314E-2
2.759200268E1,1.864666194E-1,-1.195768714E-1,-1.617265791E-1
2.760200269E1,1.812742651E-1,-5.893322229E-1,-2.939788997E-1
2.761200268E1,6.551529467E-2,-8.720101118E-1,-4.370740950E-1
2.762200268E1,-6.352998316E-2,-1.066418052E0,-5.461135507E-1
2.763200269E1,-9.865473956E-2,-1.031293273E0,-5.215262175E-1
2.764200268E1,-1.007927675E-2,-6.727153659E-1,-4.602869749E-1
2.765200269E1,9.025534242E-2,-2.295326144E-1,-4.637994468E-1
2.766200268E1,1.951714456E-1,3.828597963E-1,-5.152648091E-1
2.767200269E1,1.826487035E-1,9.662361145E-1,-4.844161272E-1
2.768200268E1,4.459316283E-2,1.183856845E0,-3.866777122E-1
2.769200269E1,-5.207626149E-2,1.073595643E0,-3.190243840E-1
2.770200268E1,-1.557706445E-1,8.098546267E-1,-2.021963894E-1
2.771200268E1,-2.603813112E-1,4.541783035E-1,-7.559457421E-2
2.772200269E1,-3.361285925E-1,1.721112877E-1,1.053742506E-2
2.773200268E1,-4.363104999E-1,-9.896016866E-2,7.483099401E-2
2.774200269E1,-5.282457471E-1,-2.310597748E-1,1.168279797E-1
2.775200268E1,-6.262896061E-1,-2.432770878E-1,1.514945775E-1
2.776200269E1,-7.003570199E-1,-2.180788964E-1,1.748601794E-1
2.777200268E1,-7.754934430E-1,-1.941024363E-1,1.811215430E-1
2.778200269E1,-8.313875794E-1,-1.689042449E-1,1.631010175E-1
2.779200269E1,-8.666650653E-1,-1.531744599E-1,1.777617931E-1
2.780200268E1,-9.152288437E-1,-1.618792862E-1,1.475239545E-1
2.781200269E1,-9.700540304E-1,-1.718058437E-1,1.232420653E-1
2.782200268E1,-1.035722017E0,-1.782199293E-1,1.039998084E-1
2.783200269E1,-1.107345939E0,-1.771509200E-1,9.086620808E-2
2.784200268E1,-1.217912555E0,-1.763873398E-1,7.299839705E-2
2.785200269E1,-1.287093043E0,-1.572978050E-1,5.971207842E-2
2.786200268E1,-1.293354392E0,-1.270599663E-1,4.749477282E-2
2.787200268E1,-1.269225240E0,-9.071348608E-2,2.046398632E-2
2.788200269E1,-1.225701094E0,-3.512475267E-2,-1.389718428E-2
2.789200268E1,-1.160491228E0,3.512475267E-2,-5.574145541E-2
2.790200269E1,-1.097572088E0,7.528914511E-2,-7.925976813E-2
2.791200268E1,-1.008996725E0,7.422012836E-2,-9.422596544E-2
2.792200269E1,-9.082038999E-1,2.138028294E-2,-9.330966324E-2
2.793200268E1,-8.086328506E-1,-4.734205827E-2,-8.613199741E-2
2.794200269E1,-7.284567952E-1,-6.643159688E-2,-8.521570265E-2
2.795200268E1,-6.484334469E-1,-3.955352306E-2,-9.529497474E-2
2.796200268E1,-5.865833759E-1,2.351831272E-2,-1.078177169E-1
2.797200269E1,-5.612324476E-1,7.666359097E-2,-1.311833113E-1
2.798200268E1,-5.528330207E-1,1.336267740E-1,-1.337794960E-1
2.799200269E1,-5.383250117E-1,1.542434692E-1,-1.278235465E-1
2.800200268E1,-5.271766782E-1,1.350012124E-1,-9.239336848E-2
2.801200269E1,-5.645921826E-1,1.168279797E-1,-4.948008433E-2
2.802200268E1,-6.517932415E-1,1.313360333E-1,7.635815418E-4
2.803200269E1,-6.831000447E-1,1.699732542E-1,3.497203439E-2
2.804200269E1,-6.197227836E-1,2.029599845E-1,8.964447677E-2
2.805200268E1,-5.259549618E-1,2.179261744E-1,1.490511149E-1
2.806200269E1,-4.138612151E-1,2.246456891E-1,2.365575731E-1
2.807200268E1,-3.590360582E-1,2.455678284E-1,3.046690524E-1
2.808200269E1,-3.443752825E-1,2.843577862E-1,3.069597781E-1
2.809200268E1,-3.361285925E-1,2.915354371E-1,2.837468982E-1
2.810200269E1,-3.701843321E-1,2.732094824E-1,2.594650090E-1
2.811200268E1,-4.683809280E-1,2.438879460E-1,2.721404731E-1
2.812200268E1,-4.729624093E-1,1.423316002E-1,3.162754774E-1
2.813200269E1,-3.530801237E-1,-1.485929638E-1,4.492913783E-1
2.814200268E1,-1.919644028E-1,-3.836233616E-1,5.711590052E-1
2.815200269E1,-1.774563491E-1,-3.848451078E-1,5.710062981E-1
2.816200268E1,-2.858849466E-1,-2.449569702E-1,5.004513264E-1
2.817200269E1,-5.161811113E-1,-2.458732575E-2,3.849978149E-1
2.818200268E1,-7.864890099E-1,2.078468949E-1,2.477058619E-1
2.819200269E1,-1.057865858E0,4.305072725E-1,1.446223408E-1
2.820200268E1,-1.206306100E0,5.606215596E-1,8.628471941E-2
2.821200268E1,-1.274570346E0,5.613851547E-1,3.283400834E-2
2.822200269E1,-1.252731919E0,4.283692539E-1,8.552113548E-3
2.823200268E1,-1.177595496E0,3.037527502E-1,-4.520402849E-2
2.824200269E1,-1.013272762E0,1.174388453E-1,-2.064724565E-1
2.825200268E1,-8.594874144E-1,-7.223481685E-2,-3.129157126E-1
2.826200269E1,-7.370089293E-1,-2.112066597E-1,-3.692680299E-1
2.827200268E1,-6.556110978E-1,-2.496911734E-1,-3.622430861E-1
2.828200269E1,-5.816964507E-1,-1.502728462E-1,-3.698789179E-1
2.829200269E1,-5.650503635E-1,2.519819140E-2,-3.923282027E-1
2.830200268E1,-5.809328556E-1,1.375973970E-1,-4.179845452E-1
2.831200269E1,-6.152940392E-1,2.365575731E-1,-4.521929920E-1
2.832200268E1,-6.663012505E-1,2.774855494E-1,-4.715879560E-1
2.833200269E1,-7.221954465E-1,2.677116990E-1,-4.787656367E-1
2.834200268E1,-7.670940161E-1,2.058615834E-1,-4.882340431E-1
2.835200269E1,-8.155050874E-1,1.125519201E-1,-4.781547785E-1
2.836200268E1,-8.361217976E-1,1.328631863E-2,-4.766276181E-1
2.837200268E1,-8.287914395E-1,-4.489859566E-2,-4.815145433E-1
2.838200269E1,-8.190175891E-1,-5.925392732E-2,-4.644103050E-1
2.839200268E1,-7.823656797E-1,-6.750060618E-2,-4.413501322E-1
2.840200269E1,-7.069237828E-1,-7.086037099E-2,-3.940080702E-1
2.841200268E1,-6.423248053E-1,-5.360342562E-2,-3.320052624E-1
2.842200269E1,-5.849034786E-1,-0.000000000E0,-2.664899528E-1
2.843200268E1,-5.519167781E-1,7.773260027E-2,-2.069306076E-1
2.844200269E1,-5.372560024E-1,1.395827085E-1,-1.606575549E-1
2.845200268E1,-5.480988622E-1,1.928807050E-1,-1.571450830E-1
2.846200268E1,-5.639813542E-1,2.762638032E-1,-1.571450830E-1
2.847200269E1,-5.774203539E-1,3.416263759E-1,-1.475239545E-1
2.848200268E1,-5.907067060E-1,3.681990206E-1,-1.401935667E-1
2.849200269E1,-5.955936313E-1,3.743076921E-1,-1.255328059E-1
2.850200268E1,-5.615378618E-1,3.417791128E-1,-1.218676195E-1
2.851200269E1,-4.790710807E-1,2.524400651E-1,-1.488984078E-1
2.852200268E1,-4.069889784E-1,1.207986027E-1,-1.038470939E-1
2.853200269E1,-3.216205537E-1,-4.092797264E-2,-4.520402849E-2
2.854200269E1,-2.374738604E-1,-1.191187203E-1,3.634648025E-2
2.855200268E1,-1.180497110E-1,-1.403462887E-1,1.079704314E-1
2.856200269E1,-6.261368748E-3,-1.133155003E-1,1.307251602E-1
2.857200268E1,8.231408894E-2,-1.374446787E-2,1.398881376E-1
2.858200269E1,9.773843735E-2,1.447750628E-1,1.249219403E-1
2.859200268E1,5.497787148E-2,2.945897579E-1,8.093964309E-2
2.860200269E1,8.552113548E-3,3.849978149E-1,3.588833287E-2
2.861200268E1,-4.520402849E-2,4.149302244E-1,-2.382374369E-2
2.862200268E1,-1.061378345E-1,4.389066696E-1,-6.261368841E-2
2.863200269E1,-1.768454909E-1,4.324925840E-1,-1.282816976E-1
2.864200268E1,-2.551889420E-1,3.240640163E-1,-2.706133127E-1
2.865200269E1,-2.299907655E-1,8.796459436E-2,-3.666718602E-1
2.866200268E1,-3.066543639E-1,-1.049161032E-1,-4.674646258E-1
2.867200269E1,-4.466952085E-1,-1.745547503E-1,-5.693264008E-1
2.868200268E1,-5.526803136E-1,-2.464841306E-1,-6.298020482E-1
2.869200269E1,-5.247332454E-1,-3.153591752E-1,-6.371324658E-1
2.870200268E1,-3.776674271E-1,-2.773328125E-1,-6.108652353E-1
2.871200268E1,-2.417499274E-1,-1.050688252E-1,-5.688682795E-1
2.872200269E1,-1.386664063E-1,2.087631971E-1,-5.308418870E-1
2.873200268E1,-1.788308024E-1,4.688390791E-1,-5.054910183E-1
2.874200269E1,-2.903137207E-1,5.134322643E-1,-4.697553813E-1
2.875200268E1,-4.343251884E-1,3.813326359E-1,-3.981314301E-1
2.876200269E1,-5.161811113E-1,1.647808999E-1,-3.036000133E-1
2.877200268E1,-5.264131427E-1,-7.712173462E-2,-2.287690341E-1
2.878200269E1,-5.151121020E-1,-2.306016237E-1,-1.797471046E-1
2.879200269E1,-5.109887719E-1,-3.695734739E-1,-1.172861308E-1
2.880200268E1,-5.532912016E-1,-4.069889784E-1,-6.337726861E-2
2.881200269E1,-6.113234162E-1,-3.660610020E-1,-3.268129006E-2
2.882200268E1,-6.976081133E-1,-2.814561725E-1,-1.298088674E-2
2.883200269E1,-7.811439037E-1,-2.550362349E-1,5.650503561E-3
2.884200268E1,-8.480336666E-1,-2.722931802E-1,-1.527163084E-3
2.885200269E1,-8.978192210E-1,-3.136793077E-1,-2.565634064E-2
2.886200268E1,-9.647089243E-1,-3.791945875E-1,-6.551529467E-2
2.887200268E1,-1.047328472E0,-4.497495294E-1,-9.926560521E-2
2.888200269E1,-1.142012596E0,-4.780020416E-1,-1.075122803E-1
2.889200268E1,-1.219897866E0,-4.685336351E-1,-1.291979998E-1
2.890200269E1,-1.314581990E0,-4.543310404E-1,-1.360702366E-1
2.891200268E1,-1.394758105E0,-4.521929920E-1,-1.432479024E-1
2.892200269E1,-1.455539107E0,-4.282165468E-1,-1.576032341E-1
2.893200268E1,-1.516472936E0,-3.825543523E-1,-1.879937798E-1
2.894200269E1,-1.539685845E0,-3.365867436E-1,-2.124283910E-1
2.895200268E1,-1.555568337E0,-3.052799106E-1,-2.380847335E-1
2.896200268E1,-1.524108768E0,-2.725986242E-1,-2.612976134E-1
2.897200269E1,-1.453859329E0,-2.422080636E-1,-2.725986242E-1
2.898200268E1,-1.344514370E0,-2.406809032E-1,-2.645046413E-1
2.899200269E1,-1.216996312E0,-2.583959997E-1,-2.466368377E-1
2.900200268E1,-1.122159481E0,-2.530509233E-1,-2.128865421E-1
2.901200269E1,-1.018770456E0,-2.333505303E-1,-1.669189334E-1
2.902200268E1,-9.202684760E-1,-2.328923792E-1,-1.354593635E-1
2.903200269E1,-8.668177724E-1,-2.472477108E-1,-1.198823079E-1
2.904200269E1,-8.231409192E-1,-2.409863323E-1,-1.127046347E-1
2.905200268E1,-7.964155674E-1,-2.095267773E-1,-1.030835137E-1
2.906200269E1,-7.757988572E-1,-1.380555481E-1,-1.105666086E-1
2.907200268E1,-7.722864151E-1,-5.574145541E-2,-1.204931661E-1
2.908200269E1,-7.649559975E-1,4.352414981E-2,-8.399397135E-2
2.909200268E1,-7.501425147E-1,7.528914511E-2,-3.039054573E-2
2.910200269E1,-7.767151594E-1,8.491026610E-2,1.374446787E-3
2.911200268E1,-8.202393055E-1,7.024950534E-2,1.374446787E-2
2.912200268E1,-8.565858006E-1,8.720101416E-2,3.695734590E-2
2.913200269E1,-8.260425329E-1,1.273654103E-1,7.712173462E-2
2.914200268E1,-7.677049041E-1,1.626428664E-1,1.195768714E-1
2.915200269E1,-6.837109327E-1,2.017382532E-1,1.618792862E-1
2.916200268E1,-6.377432942E-1,2.817615867E-1,1.579086632E-1
2.917200269E1,-6.829473376E-1,3.057380617E-1,9.101892263E-2
2.918200268E1,-7.426594496E-1,2.690861523E-1,4.367686436E-2
2.919200269E1,-7.791585922E-1,1.708895564E-1,1.221730490E-3
2.920200268E1,-7.741189599E-1,5.039638374E-3,2.748893574E-3
2.921200268E1,-7.397578359E-1,-1.895209402E-1,5.772676691E-2
2.922200269E1,-7.073819637E-1,-4.650211632E-1,1.594358236E-1
2.923200268E1,-7.141014934E-1,-7.104362845E-1,2.403754741E-1
2.924200269E1,-8.365799785E-1,-8.802568316E-1,2.277000248E-1
2.925200268E1,-1.005636930E0,-8.095491529E-1,1.805106848E-1
2.926200269E1,-1.215011001E0,-4.679227769E-1,1.148426682E-1
2.927200268E1,-1.350164890E0,-3.878994286E-2,1.122464910E-1
2.928200269E1,-1.350775719E0,3.906483352E-1,7.009678334E-2
2.929200269E1,-1.310000539E0,5.661193728E-1,0.000000000E0
2.930200268E1,-1.271515965E0,5.477933884E-1,-8.796459436E-2
2.931200269E1,-1.221119642E0,4.289801121E-1,-2.112066597E-1
2.932200268E1,-1.160949349E0,2.570215464E-1,-3.440698385E-1
2.933200269E1,-1.065348983E0,-1.985311974E-3,-4.550946057E-1
2.934200268E1,-9.390525818E-1,-1.988366395E-1,-4.699080884E-1
2.935200269E1,-8.064948320E-1,-2.817615867E-1,-4.372268021E-1
2.936200268E1,-7.105889916E-1,-2.814561725E-1,-4.266893864E-1
2.937200268E1,-6.049093008E-1,-1.831068546E-1,-4.173736870E-1
2.938200269E1,-5.299255848E-1,-8.613199741E-2,-4.288274050E-1
2.939200268E1,-4.899139404E-1,-7.147123665E-2,-4.375322461E-1
2.940200269E1,-4.789183438E-1,-9.575312585E-2,-4.399756789E-1
2.941200268E1,-4.862487316E-1,-1.380555481E-1,-4.373795092E-1
2.942200269E1,-5.054910183E-1,-1.780672222E-1,-4.360050559E-1
2.943200268E1,-5.311473012E-1,-2.035708427E-1,-4.517348409E-1
2.944200269E1,-5.396994352E-1,-2.229658216E-1,-4.676173329E-1
2.945200268E1,-5.409211516E-1,-2.532036304E-1,-4.700607955E-1
2.946200268E1,-5.274821520E-1,-2.628247738E-1,-4.541783035E-1
2.947200269E1,-5.126686692E-1,-2.626720667E-1,-4.309654236E-1
2.948200268E1,-4.931209683E-1,-2.577851415E-1,-3.871358633E-1
2.949200269E1,-4.746423066E-1,-2.309070677E-1,-3.323107064E-1
2.950200268E1,-4.610505402E-1,-1.835650057E-1,-2.764165103E-1
2.951200269E1,-4.523457289E-1,-1.337794960E-1,-2.423607856E-1
2.952200268E1,-4.511239827E-1,-4.413501546E-2,-2.034181207E-1
2.953200269E1,-4.521929920E-1,6.123924255E-2,-1.620320082E-1
2.954200269E1,-4.471533597E-1,1.484402567E-1,-1.159116775E-1
2.955200268E1,-4.349360466E-1,2.345722616E-1,-8.307767659E-2
2.956200269E1,-4.373795092E-1,3.095559776E-1,-6.368270516E-2
2.957200268E1,-4.494441152E-1,3.362813294E-1,-5.879577994E-2
2.958200269E1,-4.459316432E-1,3.373503387E-1,-6.368270516E-2
2.959200268E1,-4.375322461E-1,3.046690524E-1,-1.003346145E-1
2.960200269E1,-4.166100919E-1,2.576324046E-1,-6.368270516E-2
2.961200268E1,-3.860668242E-1,1.621847153E-1,-2.703078650E-2
2.962200268E1,-3.495676219E-1,8.491026610E-2,-1.237002108E-2
2.963200269E1,-2.863430977E-1,4.031710699E-2,-1.374446787E-2
2.964200268E1,-2.255619913E-1,7.330382615E-2,3.054326167E-3
2.965200269E1,-1.867720485E-1,1.253800988E-1,1.130100712E-2
2.966200268E1,-1.579086632E-1,2.513710558E-1,-6.108652335E-3
2.967200269E1,-1.470658034E-1,3.929390609E-1,-1.970040426E-2
2.968200268E1,-1.278235465E-1,5.079344511E-1,-3.833179548E-2
2.969200269E1,-1.122464910E-1,5.598580241E-1,-4.703662544E-2
2.970200269E1,-1.125519201E-1,6.117815375E-1,-1.105666086E-1
2.971200268E1,-1.223257631E-1,5.971207619E-1,-1.336267740E-1
2.972200269E1,-1.175915599E-1,5.317581892E-1,-1.664607823E-1
2.973200268E1,-7.528914511E-2,2.545780838E-1,-2.467895597E-1
2.974200269E1,-4.138612002E-2,-1.569923609E-1,-3.353650272E-1
2.975200268E1,-8.170322329E-2,-5.845980644E-1,-4.589125216E-1
2.976200269E1,-1.452332139E-1,-8.077165484E-1,-5.693264008E-1
2.977200268E1,-1.918116808E-1,-8.286387324E-1,-6.630942225E-1
2.978200269E1,-1.485929638E-1,-5.842925906E-1,-7.417431474E-1
2.979200269E1,-5.238169432E-2,-1.812742651E-1,-8.184067011E-1
