"Time (s)","Acceleration x (m/s^2)","Acceleration y (m/s^2)","Acceleration z (m/s^2)","gyro_x","gyro_y","gyro_z"
2.987659700E-2,5.018347263E0,1.563709617E0,8.591429710E0
3.833225000E-2,4.827519894E0,1.427916884E0,8.455039024E0
4.833225000E-2,4.598406792E0,1.343569875E0,8.323433876E0
5.833225000E-2,4.408177376E0,1.198205948E0,8.254639626E0
6.833225000E-2,4.408177376E0,1.198205948E0,8.254639626E0
7.833225000E-2,3.686143398E0,8.620143533E-1,8.537590981E0
8.833225000E-2,3.482753277E0,7.166503668E-1,8.616554260E0
9.833225000E-2,3.397209883E0,1.132403374E0,8.608778000E0
1.083322500E-1,3.561118364E0,1.468594909E0,8.581858635E0
1.183322500E-1,3.723830223E0,1.527817249E0,8.713463783E0
1.283322500E-1,3.779463291E0,1.414756417E0,9.095717430E0
1.383322500E-1,3.107080221E0,1.548156261E0,9.628120422E0
1.483322500E-1,3.334996462E0,1.501496196E0,9.260223389E0
1.583322500E-1,2.852244616E0,2.662015259E-1,1.056490993E1
1.683322500E-1,2.760719061E0,1.153938770E0,1.022931671E1
1.783322500E-1,2.697907448E0,1.516451359E0,9.869196892E0
1.883322500E-1,3.640679598E0,1.557129383E0,1.106979561E1
1.983322500E-1,3.611367464E0,1.195813060E0,1.027178955E1
2.083322500E-1,2.857030153E0,1.607378602E0,1.113141060E1
2.183322500E-1,2.675773859E0,1.743171334E0,1.064028454E1
2.283322500E-1,2.507079840E0,1.372882009E0,1.061575794E1
2.383322500E-1,2.121835470E0,8.919246197E-1,1.097468090E1
2.483322500E-1,1.481157184E0,8.231309652E-1,1.084068298E1
2.583322500E-1,1.001994491E0,8.997012973E-1,1.071864891E1
2.683322500E-1,8.344969153E-1,1.383649707E0,9.809974670E0
2.783322500E-1,9.852447510E-1,1.770688772E0,9.162117958E0
2.883322500E-1,1.264606714E0,2.120639086E0,8.404191017E0
2.983322500E-1,1.506880045E0,2.276172638E0,8.430512428E0
3.083322500E-1,1.700698733E0,2.212164640E0,8.787042618E0
3.183322500E-1,1.797009826E0,2.059622049E0,8.692526817E0
3.283322500E-1,1.836491346E0,2.267797709E0,7.508079052E0
3.383322500E-1,2.154138565E0,2.420938253E0,8.206185341E0
3.483322500E-1,2.582453728E0,3.031706333E0,9.791430473E0
3.583322500E-1,2.748754978E0,3.367299557E0,9.282357216E0
3.683322500E-1,2.535195589E0,2.976671457E0,8.909674644E0
3.783322500E-1,1.135992527E0,2.398804665E0,8.979664803E0
3.883322500E-1,5.144568682E-1,2.532204628E0,7.413562775E0
3.983322500E-1,1.293918848E0,1.806581140E0,7.128218651E0
4.083322500E-1,6.323033571E-1,9.672985673E-1,1.230867958E1
4.183322500E-1,1.704886109E-1,2.096112728E0,1.024247742E1
4.283322500E-1,-7.758727670E-1,4.938187599E0,1.174277687E1
4.383322500E-1,5.581258535E-1,5.444269657E0,8.306683540E0
4.483322500E-1,1.473978758E0,5.644668579E0,8.380861282E0
4.583322500E-1,1.041476011E0,5.329414368E0,1.006899738E1
4.683322500E-1,-6.155536175E-1,3.765704632E0,1.104467106E1
4.783322500E-1,-1.384846091E0,3.121437073E0,9.127422333E0
4.883322500E-1,-5.647061467E-1,4.849653244E0,8.222336769E0
4.983322500E-1,8.075776696E-2,6.135197163E0,7.073781967E0
5.083322500E-1,-5.539384484E-1,6.254240036E0,9.184251785E0
5.183322500E-1,-1.291526079E0,5.535196781E0,9.475577354E0
5.283322500E-1,-1.709671736E0,4.770092010E0,7.662416458E0
5.383322500E-1,2.133799553E0,7.858627796E0,1.740180254E0
5.483322500E-1,5.179862976E0,9.232706070E0,1.816152334E0
5.583322500E-1,4.765306473E0,7.676175117E0,4.568496704E0
5.683322500E-1,2.431705952E0,5.450850010E0,5.720042706E0
5.783322500E-1,1.130608693E-1,5.163711071E0,3.351746321E0
5.883322500E-1,-1.918445587E0,6.022136211E0,2.250449657E0
5.983322500E-1,-3.054438114E0,7.399205685E0,2.304288149E0
6.083322500E-1,-3.476173162E0,7.738388538E0,1.874776483E0
6.183322500E-1,-3.488735437E0,8.097311974E0,1.919641972E0
6.283322500E-1,-2.845066071E0,7.905886173E0,1.283151150E0
6.383322500E-1,-1.826321840E0,7.680362701E0,1.054636598E0
6.483322500E-1,-2.388635159E0,7.305885792E0,6.933203340E-1
6.583322500E-1,-2.901297569E0,6.973283291E0,-1.304088384E-1
6.683322500E-1,-3.287140131E0,7.314260483E0,-1.166501045E-1
6.783322500E-1,-3.943371773E0,8.121838570E0,1.764706671E-1
6.883322500E-1,-5.602196217E0,9.786644936E0,-1.295115232E0
6.983322500E-1,-6.496513367E0,1.093220806E1,-2.853441000E0
7.083322500E-1,-6.520441532E0,1.143888855E1,-1.101894855E0
7.183322500E-1,-5.889334679E0,1.187797165E1,-2.062613010E0
7.283322500E-1,-6.123233318E0,1.482533073E1,-1.173081279E0
7.383322500E-1,-6.968497753E0,1.184088326E1,6.813562512E-1
7.483322500E-1,-7.128218651E0,1.016530895E1,-9.218349457E-1
7.583322500E-1,-2.873780012E0,6.631708145E0,-9.577272534E-1
7.683322500E-1,-1.826920033E0,4.446462631E0,-3.750749528E-1
7.783322500E-1,-2.261217356E0,5.255236626E0,-6.508477330E-1
7.883322500E-1,-2.726621389E0,5.596213818E0,-3.074777126E-1
7.983322500E-1,-3.372683525E0,5.650052547E0,5.545366406E-1
8.083322500E-1,-3.233301640E0,6.221338749E0,7.639086246E-1
8.183322500E-1,-2.733799934E0,4.320241451E0,2.239681959E0
8.283322500E-1,-4.274179459E0,4.867599487E0,1.233500123E0
8.383322500E-1,-8.385646820E0,1.046800041E1,-1.322034478E0
8.483322500E-1,-1.025683403E1,1.077607632E1,-2.891726255E0
8.583322500E-1,-1.078086281E1,8.603393555E0,-1.202393413E0
8.683322500E-1,-7.664809227E0,6.245865345E0,-9.834501147E-1
8.783322500E-1,-6.339783669E0,2.972483873E0,-2.249253273E0
8.883322500E-1,-6.593422890E0,3.126222849E0,-2.973680258E0
8.983322500E-1,-7.842476368E0,4.762913704E0,-3.794418573E0
9.083322500E-1,-8.294719696E0,5.111069202E0,-4.567300320E0
9.183322500E-1,-8.343772888E0,4.667200565E0,-3.891327858E0
9.283322500E-1,-8.532805443E0,5.243272781E0,-4.252045631E0
9.383322500E-1,-8.266604424E0,5.920441628E0,-4.192225456E0
9.483322500E-1,-8.570492744E0,6.272186279E0,-2.289931297E0
9.583322500E-1,-8.814560890E0,6.007779598E0,-1.919641972E0
9.683322500E-1,-9.259625435E0,6.370890141E0,-2.272583246E0
9.783322500E-1,-7.817351341E0,5.689534187E0,-2.785843849E0
9.883322500E-1,-5.580062389E0,5.249254704E0,-6.340979785E-2
9.983322500E-1,-2.647060156E0,4.213162422E0,6.594619274E0
1.008332250E0,-4.784449100E0,2.857628345E0,8.401200294E0
1.018332250E0,-1.156630611E1,2.312064886E0,5.879763603E0
1.028332250E0,-2.959921598E0,1.430907965E0,-4.051048756E0
1.038332250E0,-6.541976929E0,2.353341103E0,-1.150528908E1
1.048332250E0,-9.175278664E0,3.795016766E0,-1.592124367E1
1.058332250E0,-1.047757244E1,4.731806755E0,-2.261636162E1
1.068332250E0,-1.033101177E1,5.006382942E0,-2.059741783E1
1.078332250E0,-8.487939835E0,5.469394207E0,-1.311506081E1
1.088332250E0,-7.269993305E0,3.914059639E0,-2.913859844E0
1.098332250E0,-7.269993305E0,3.635295868E0,-1.628913999E0
1.108332250E0,-7.280162811E0,3.057429075E0,-1.037886858E0
1.118332250E0,-7.325028419E0,2.743969440E0,-1.912463546E0
1.128332250E0,-7.456633568E0,4.013361931E0,-2.732603550E0
1.138332250E0,-7.756334782E0,4.669593334E0,-3.098107100E0
1.148332250E0,-7.517650604E0,6.333203316E0,-4.609772682E0
1.158332250E0,-7.494320393E0,6.766304016E0,-3.936193228E0
1.168332250E0,-6.789634228E0,6.064609051E0,-3.911068678E0
1.178332250E0,-4.977669239E0,5.755336761E0,-4.329812527E0
1.188332250E0,-4.127020836E0,4.890929699E0,-5.095515728E0
1.198332250E0,-4.323232174E0,3.364906788E0,-6.017350674E0
1.208332250E0,-5.213960648E0,2.848057270E0,-6.385247231E0
1.218332250E0,-6.279364586E0,2.450848579E0,-6.151348591E0
1.228332250E0,-7.606783390E0,2.051845312E0,-5.697310925E0
1.238332250E0,-8.470592499E0,2.101496458E0,-5.415555954E0
1.248332250E0,-9.254839897E0,2.829512835E0,-4.114458561E0
1.258332250E0,-1.075095177E1,5.395216942E0,-3.943969965E0
1.268332250E0,-1.092024422E1,6.416353703E0,-4.323232174E0
1.278332250E0,-8.393424034E0,5.182255745E0,-4.200001717E0
1.288332250E0,-8.252845764E0,3.247060299E0,-5.507081509E0
1.298332250E0,-8.585447311E0,2.302493572E0,-6.814160824E0
1.308332250E0,-7.271788120E0,4.625326157E0,-5.475974560E0
1.318332250E0,-6.676573277E0,4.050450325E0,-6.018547058E0
1.328332250E0,-6.534200668E0,3.988835335E0,-6.362515450E0
1.338332250E0,-6.565307140E0,4.273581028E0,-7.146164894E0
1.348332250E0,-6.451049805E0,4.507479668E0,-7.706683636E0
1.358332250E0,-6.646663189E0,4.118646145E0,-7.478767395E0
1.368332250E0,-6.804589272E0,3.860221148E0,-7.070192814E0
1.378332250E0,-6.495316982E0,4.621737003E0,-5.909673691E0
1.388332250E0,-6.948757172E0,4.896313190E0,-5.389235020E0
1.398332250E0,-8.854640007E0,5.484947681E0,-2.263011932E0
1.408332250E0,-9.229117393E0,4.787439823E0,-3.002992272E-1
1.418332250E0,-9.229117393E0,4.787439823E0,-3.002992272E-1
1.428332250E0,-7.307680130E0,2.943171740E0,-2.720041037E0
1.438332250E0,-7.278368473E0,2.892922640E0,-3.607180119E0
1.448332250E0,-6.723233223E0,2.877967358E0,-7.845467091E0
1.458332250E0,-5.714658737E0,4.231108665E0,-9.931410789E0
1.468332250E0,-5.011168957E0,4.878366947E0,-8.562715530E0
1.478332250E0,-5.598606586E0,4.978267670E0,-4.773082733E0
1.488332250E0,-6.004190445E0,4.397409916E0,-3.984049797E0
1.498332250E0,-7.074379921E0,4.007379532E0,-1.008574724E0
1.508332250E0,-8.350951195E0,4.253840446E0,1.067198873E0
1.518332250E0,-9.131608963E0,4.519443989E0,1.293918848E0
1.528332250E0,-9.131608963E0,4.519443989E0,1.293918848E0
1.538332250E0,-6.886543751E0,3.707080364E0,-4.817350388E0
1.548332250E0,-6.014359951E0,3.923630953E0,-9.283554077E0
1.558332250E0,-6.973881721E0,3.280559778E0,-1.022154045E1
1.568332250E0,-8.059624672E0,3.454637766E0,-7.407580853E0
1.578332250E0,-8.024331093E0,3.416950703E0,-5.371288776E0
1.588332250E0,-8.016553879E0,7.573283911E-1,-1.593021631E0
1.598332250E0,-8.523234367E0,5.814558864E-1,-1.049850941E0
1.608332250E0,-8.896514893E0,6.957131624E-1,-1.811366796E0
1.618332250E0,-9.184849739E0,1.273579836E0,-1.079761267E0
1.628332250E0,-1.152682495E1,-3.284149170E-1,-1.277767301E0
1.638332250E0,-1.113918781E1,3.339184046E0,1.825125456E0
1.648332250E0,-1.169791126E1,-8.051848412E-1,-1.907079697E0
1.658332250E0,-1.253659630E1,-2.828914642E0,-2.387438774E0
1.668332250E0,-1.313061428E1,-2.953341246E0,-1.915454507E0
1.678332250E0,-1.263769245E1,-2.820539713E0,-2.449054003E0
1.688332250E0,-1.181815147E1,-1.804786444E0,-2.933600664E0
1.698332250E0,-1.109850979E1,-6.831508875E-1,-3.084946632E0
1.708332250E0,-1.035852909E1,-4.265206456E-1,-2.771486759E0
1.718332250E0,-9.922437668E0,-6.233302951E-1,-2.925225735E0
1.728332250E0,-9.559326172E0,-1.848455518E-1,-3.016751051E0
1.738332250E0,-8.846863747E0,2.182852507E0,-2.300100803E0
1.748332250E0,-7.036095142E0,2.623131752E0,-3.477967739E0
1.758332250E0,-6.729215622E0,1.013360381E0,-3.529413462E0
1.768332250E0,-6.909873486E0,1.122832060E0,-4.878366947E0
1.778332250E0,-7.649854183E0,3.777668715E0,-6.148955822E0
1.788332250E0,-7.888537884E0,3.429512978E0,-4.928616524E0
1.798332250E0,-8.062017441E0,2.234298229E0,-3.821337700E0
1.808332250E0,-8.857631683E0,2.153540373E0,-6.076572895E0
1.818332250E0,-8.784051895E0,1.912463546E0,-7.115057945E0
1.828332250E0,-7.578667641E0,1.126421213E0,-6.567699909E0
1.838332250E0,-6.878168583E0,7.591229677E-1,-6.712465763E0
1.848332250E0,-6.454638958E0,7.357929349E-1,-6.256632805E0
1.858332250E0,-6.401398659E0,1.753340840E0,-5.201398373E0
1.868332250E0,-6.623931408E0,2.079362869E0,-5.994020939E0
1.878332250E0,-6.826124668E0,1.975873351E0,-6.449853420E0
1.888332250E0,-6.986443996E0,1.309472203E0,-6.348158360E0
1.898332250E0,-7.418348312E0,8.404789567E-1,-6.637690067E0
1.908332250E0,-7.694719315E0,1.319043517E0,-3.811766386E0
1.918332250E0,-9.293125153E0,-2.883351147E-1,-5.230112076E0
1.928332250E0,-9.351150513E0,2.871387303E-1,-6.188437462E0
1.938332250E0,-8.941978455E0,1.038485050E0,-5.991627693E0
1.948332250E0,-8.360522270E0,8.027920127E-1,-6.746563435E0
1.958332250E0,-7.616952896E0,1.022333503E0,-5.874977589E0
1.968332250E0,-8.470592499E0,2.410768867E-1,-5.115256786E0
1.978332250E0,-7.459026337E0,1.202393398E-1,-5.650052547E0
1.988332250E0,-7.789236069E0,5.730810165E-1,-5.012365341E0
1.998332250E0,-7.764709473E0,5.545366406E-1,-4.831109047E0
2.008332250E0,-7.694719315E0,7.878368497E-1,-5.696712494E0
2.018332250E0,-7.861618996E0,1.154536963E0,-5.784050465E0
2.028332250E0,-7.198806763E0,1.378265858E0,-4.807180882E0
2.038332250E0,-7.205387115E0,3.655036688E-1,-4.351347923E0
2.048332250E0,-7.827520847E0,-4.319044948E-1,-4.990231514E0
2.058332250E0,-8.523234367E0,1.084546804E0,-8.106883049E0
2.068332250E0,-8.234300613E0,2.218146563E0,-7.435098171E0
2.078332250E0,-8.184649467E0,2.191227436E0,-7.082755089E0
2.088332250E0,-8.122436523E0,1.727617979E0,-7.069594383E0
2.098332250E0,-8.366504669E0,9.726824164E-1,-5.765506268E0
2.108332250E0,-8.143373489E0,9.278169870E-1,-5.298905849E0
2.118332250E0,-7.856832981E0,7.914260626E-1,-5.528616905E0
2.128332250E0,-7.609774113E0,6.532405615E-1,-6.110671043E0
2.138332250E0,-8.138587952E0,6.011967063E-1,-5.835496426E0
2.148332250E0,-7.783852100E0,7.758727670E-1,-6.301498413E0
2.158332250E0,-7.473383427E0,1.560120344E0,-5.789434433E0
2.168332250E0,-7.506284714E0,1.506880045E0,-5.736194134E0
2.178332250E0,-7.718647480E0,1.508674622E0,-6.135795593E0
2.188332250E0,-8.193622589E0,8.566305041E-1,-6.719644070E0
2.198332250E0,-8.161319733E0,3.278166950E-1,-6.152545452E0
2.208332250E0,-7.870592117E0,7.298108935E-2,-5.813961029E0
2.218332250E0,-7.433901787E0,-2.392822653E-1,-6.062216282E0
2.228332250E0,-6.923034191E0,-3.601198196E-1,-6.407381058E0
2.238332250E0,-6.597609997E0,1.459621787E-1,-6.313462734E0
2.248332250E0,-6.957729816E0,1.788634896E0,-6.337988853E0
2.258332250E0,-7.100102901E0,1.797009826E0,-6.160920143E0
2.268332250E0,-7.158128738E0,1.524227977E0,-5.900700569E0
2.278332250E0,-7.735397339E0,1.767099500E0,-6.075974941E0
2.288332250E0,-8.252246857E0,2.002194405E0,-5.850451469E0
2.298332250E0,-8.615956306E0,2.224726915E0,-5.463412285E0
2.308332250E0,-1.012463093E1,8.572286963E-1,-4.948357105E0
2.318332250E0,-9.510273933E0,-1.812563092E-1,-3.665804386E0
2.328332250E0,-9.275178909E0,4.199403822E-1,-5.164309502E0
2.338332250E0,-9.328418732E0,-2.009970993E-1,-6.318248272E0
2.348332250E0,-9.001798630E0,-6.753742099E-1,-6.030511379E0
2.358332250E0,-6.132804394E0,-2.298904419E0,-6.020939827E0
2.368332250E0,-5.501099110E0,-3.619144261E-1,-6.926623344E0
2.378332250E0,-7.198208809E0,1.773081541E0,-7.585845947E0
2.388332250E0,-7.825726509E0,8.410771489E-1,-6.817151546E0
2.398332250E0,-7.837092400E0,4.366901144E-2,-5.966503143E0
2.408332250E0,-7.490133286E0,-7.710871100E-1,-5.928816319E0
2.418332250E0,-9.145368576E0,1.012762189E0,-5.732604980E0
2.428332250E0,-8.779864311E0,4.043870270E-1,-5.525027275E0
2.438332250E0,-7.412366390E0,-4.450650215E-1,-6.060421467E0
2.448332250E0,-6.689135551E0,3.128615618E-1,-6.142375946E0
2.458332250E0,-6.908079147E0,2.000998020E0,-5.653043270E0
2.468332250E0,-5.085944653E0,2.209173441E0,-5.961119175E0
2.478332250E0,-4.343571186E0,2.592025042E0,-6.832107067E0
2.488332250E0,-4.937589645E0,2.576471806E0,-7.076174736E0
2.498332250E0,-5.462814331E0,1.682154298E0,-6.727420807E0
2.508332250E0,-4.978267670E0,1.514058471E0,-6.767500877E0
2.518332250E0,-5.187639713E0,2.616551638E0,-7.237092018E0
2.528332250E0,-5.847460270E0,3.658027649E0,-7.241279602E0
2.538332250E0,-6.072983742E0,3.018545866E0,-7.559525013E0
2.548332250E0,-6.082555294E0,2.598007202E0,-7.427321434E0
2.558332250E0,-6.215356827E0,2.190629244E0,-7.175477028E0
2.568332250E0,-6.027520180E0,1.495514154E0,-6.365506649E0
2.578332250E0,-6.662216663E0,1.055234790E0,-7.783852100E0
2.588332250E0,-6.369095802E0,8.159525394E-1,-7.121040344E0
2.598332250E0,-6.207580090E0,9.176474810E-1,-7.132406235E0
2.608332250E0,-6.408577442E0,1.036092162E0,-6.908079147E0
2.618332250E0,-6.027520180E0,7.555337548E-1,-7.618747234E0
2.628332250E0,-6.115456581E0,8.015955687E-1,-6.130411625E0
2.638332250E0,-7.174280643E0,-9.696913958E-1,-6.205785751E0
2.648332250E0,-7.163512707E0,-4.348955154E-1,-6.811169624E0
2.658332250E0,-6.539584160E0,-1.465603858E-1,-6.678966045E0
2.668332250E0,-6.845267296E0,6.652047038E-1,-6.163312912E0
2.678332250E0,-7.357331276E0,1.287936807E0,-6.064609051E0
2.688332250E0,-8.481958389E0,1.548156261E0,-6.684948444E0
2.698332250E0,-9.111269951E0,1.182054400E0,-7.040880680E0
2.708332250E0,-9.973284721E0,7.334001660E-1,-7.232306480E0
2.718332250E0,-1.068036366E1,1.974078640E-2,-6.678966045E0
2.728332250E0,-1.064806080E1,-5.718846321E-1,-6.202794552E0
2.738332250E0,-9.682557106E0,-7.770691514E-1,-5.648856163E0
2.748332250E0,-7.658228874E0,4.289134443E-1,-5.736792088E0
2.758332250E0,-7.321439266E0,9.050851464E-1,-6.200401783E0
2.768332250E0,-7.043871880E0,1.299302697E0,-6.400800705E0
2.778332250E0,-7.121638298E0,1.653440475E0,-6.030511379E0
2.788332250E0,-7.235895634E0,2.059023857E0,-6.075974941E0
2.798332250E0,-6.986443996E0,2.103291035E0,-6.655037880E0
2.808332250E0,-6.927819729E0,1.654636860E0,-6.385247231E0
2.818332250E0,-7.293323517E0,2.063211441E0,-6.080760479E0
2.828332250E0,-7.442276478E0,2.230110645E0,-5.919245243E0
2.838332250E0,-7.505686283E0,2.005185366E0,-5.659623623E0
2.848332250E0,-7.654639721E0,1.668993831E0,-5.550750256E0
2.858332250E0,-7.679165840E0,7.118647099E-1,-5.553143024E0
2.868332250E0,-7.914859295E0,2.931207716E-1,-5.672185898E0
2.878332250E0,-8.040482521E0,-0.000000000E0,-5.574080467E0
2.888332250E0,-7.934001446E0,-1.668993831E-1,-5.697310925E0
2.898332250E0,-7.958528042E0,-2.057827413E-1,-5.782854080E0
2.908332250E0,-7.727620602E0,4.725824594E-1,-5.288736343E0
2.918332250E0,-7.498507977E0,5.563312769E-1,-5.133202553E0
2.928332250E0,-7.273582458E0,5.826523304E-1,-5.048855782E0
2.938332250E0,-6.843472958E0,5.820540786E-1,-5.070391178E0
2.948332250E0,-6.841079712E0,8.356932998E-1,-5.029713154E0
2.958332250E0,-7.009773731E0,1.068993568E0,-4.853840828E0
2.968332250E0,-7.245467186E0,7.657032609E-1,-4.783252239E0
2.978332250E0,-7.116254330E0,4.761717021E-1,-4.419543266E0
2.988332250E0,-6.867401123E0,3.218346536E-1,-3.804588079E0
2.998332250E0,-6.536593437E0,1.555334684E-2,-3.236292601E0
3.008332250E0,-6.595815659E0,1.001994491E0,-2.757728100E0
3.018332250E0,-5.634499073E0,8.943174481E-1,-1.889731646E0
3.028332250E0,-5.220541000E0,2.093719840E-1,-1.762912035E0
3.038332250E0,-4.632504463E0,-5.976074338E-1,-1.445264935E0
3.048332250E0,-4.034897327E0,-1.070189953E0,-1.345364571E0
3.058332250E0,-3.561716557E0,-1.200598717E0,-1.590030670E0
3.068332250E0,-3.221935749E0,-9.589236975E-1,-1.918445587E0
3.078332250E0,-2.954537868E0,3.272185028E-1,-1.529013634E0
3.088332250E0,-3.280559778E0,9.559326172E-1,-1.412961721E0
3.098332250E0,-3.436093330E0,2.140978098E0,-1.597209096E0
3.108332250E0,-3.518047571E0,2.437688112E0,-1.160519004E0
3.118332250E0,-4.115654945E0,1.941775560E0,-2.662015259E-1
3.128332250E0,-4.850251675E0,3.870390654E-1,-1.074975610E0
3.138332250E0,-5.190032482E0,-4.648058116E-1,-1.743171334E0
3.148332250E0,-6.018547058E0,-8.105686903E-1,-2.684746981E0
3.158332250E0,-7.055237770E0,-9.182456732E-1,-3.583850145E0
3.168332250E0,-8.170292854E0,-1.136590719E0,-4.191029072E0
3.178332250E0,-9.433105469E0,-1.495514154E0,-5.029713154E0
3.188332250E0,-1.087119102E1,3.379862010E-1,-6.981060028E0
3.198332250E0,-1.181216908E1,1.381855130E0,-6.763911247E0
3.208332250E0,-1.284945774E1,2.057229280E0,-6.414559364E0
3.218332250E0,-1.391964722E1,2.463410854E0,-6.425925255E0
3.228332250E0,-1.507657719E1,2.166102648E0,-6.154339790E0
3.238332250E0,-1.675155258E1,2.303091735E-1,-6.463612080E0
3.248332250E0,-1.764527321E1,-4.899304509E-1,-7.682755470E0
3.258332250E0,-1.951765633E1,-7.447660565E-1,-8.752346992E0
3.268332250E0,-2.205703926E1,-1.058225870E0,-9.493523598E0
3.278332250E0,-2.561396980E1,-1.083350420E0,-9.748359680E0
3.288332250E0,-2.972065163E1,-6.999006271E-1,-1.091426182E1
3.298332250E0,-3.691287994E1,-2.650051117E-1,-1.423729515E1
3.308332250E0,-3.849752426E1,-9.164510965E-1,-1.413201046E1
3.318332250E0,-3.760440445E1,-1.978266120E0,-1.344766331E1
3.328332250E0,-3.470609665E1,-1.886740685E0,-1.471944809E1
3.338332250E0,-3.248196793E1,-1.708475351E0,-1.506820202E1
3.348332250E0,-2.756711197E1,-2.066800594E0,-1.641057587E1
3.358332250E0,-2.575873566E1,-1.497906923E0,-1.767518234E1
3.368332250E0,-2.482374001E1,-5.958128572E-1,-1.473081398E1
3.378332250E0,-2.482374001E1,-9.954141974E-1,-1.190967655E1
3.388332250E0,-2.471247482E1,-8.596215248E-1,-6.169294834E0
3.398332250E0,-2.412623215E1,1.356730461E0,1.025922656E0
3.408332250E0,-1.509512138E1,7.581060410E0,1.147358418E1
3.418332250E0,-6.973881721E0,6.814758778E0,1.278066349E1
3.428332250E0,-8.009973764E-1,2.073979139E0,1.618086433E1
3.438332250E0,1.281356573E0,-1.177268744E0,1.889253044E1
3.448332250E0,-3.798605800E-1,-1.550549030E0,1.943988991E1
3.458332250E0,-4.088137627E0,-1.188036442E0,1.592483330E1
3.468332250E0,-3.369094372E0,-2.356930375E-1,1.535534096E1
3.478332250E0,-2.267199457E-1,2.715853751E-1,1.834696770E1
3.488332250E0,5.521438122E0,1.121037364E0,2.034736824E1
3.498332250E0,1.055354404E1,2.606382132E0,1.924248123E1
3.508332250E0,1.342014599E1,3.211168051E0,1.304507065E1
3.518332250E0,1.444606876E1,1.642074585E0,-3.226123095E0
3.528332250E0,1.176730347E1,5.264210105E-1,-4.727619171E0
3.538332250E0,6.315257072E0,-2.544766903E0,-2.477349091E1
3.548332250E0,-4.088735580E0,-5.068596363E0,-1.126720333E1
3.558332250E0,-1.224287701E1,-5.662614822E0,1.734796353E-2
3.568332250E0,-2.048076630E1,-8.434699774E-1,-1.725883102E1
3.578332250E0,-1.993939018E1,-9.050851464E-1,-1.537328720E1
3.588332250E0,-1.669352722E1,-2.062014818E0,-1.033759212E1
3.598332250E0,-1.075513935E1,-1.177268744E0,-6.783652306E0
3.608332250E0,-4.330410957E0,8.673982322E-2,-4.371088982E0
3.618332250E0,-4.061816335E-1,8.883354068E-1,-2.965305567E0
3.628332250E0,2.467000246E0,7.818548083E-1,-3.114856958E0
3.638332250E0,2.539382935E0,-1.794617064E-2,-3.519243956E0
3.648332250E0,1.798804402E0,-6.472585201E-1,-3.701098442E0
3.658332250E0,7.980063558E-1,-1.016351461E0,-3.854238987E0
3.668332250E0,-2.009970993E-1,-1.177268744E0,-3.217748165E0
3.678332250E0,8.835497499E-1,-1.501496196E0,-3.001796007E0
3.688332250E0,1.008574724E0,-1.189831018E0,-1.393221021E0
3.698332250E0,-2.470589429E-1,-9.272187948E-1,-6.580262184E-1
3.708332250E0,-1.617548108E0,-5.575276613E-1,-6.334998012E-1
3.718332250E0,-2.282154560E0,-2.273181528E-1,-1.172483116E-1
3.728332250E0,-2.184048891E0,-4.187439568E-3,6.963114142E-1
3.738332250E0,-7.465606928E-1,2.231307179E-1,1.758724689E0
3.748332250E0,1.339980662E-1,3.326023519E-1,2.172084808E0
3.758332250E0,8.949156404E-1,4.701896608E-1,2.577069998E0
3.768332250E0,1.402792215E0,5.479564071E-1,2.935993433E0
3.778332250E0,1.596012712E0,5.072783828E-1,3.202194929E0
3.788332250E0,1.358525038E0,4.528416991E-1,3.399602890E0
3.798332250E0,1.108475089E0,5.078766346E-1,3.247658491E0
3.808332250E0,8.027920127E-1,5.144568682E-1,3.335594654E0
3.818332250E0,3.750749528E-1,3.816552162E-1,3.525225878E0
3.828332250E0,1.316052489E-2,2.344966233E-1,3.485146284E0
3.838332250E0,-2.404786795E-1,2.033899277E-1,3.401397467E0
3.848332250E0,-2.404786795E-1,2.033899277E-1,3.401397467E0
3.858332250E0,-4.055834413E-1,4.121637046E-1,3.262613773E0
3.868332250E0,-3.637090325E-1,9.002995491E-1,3.101098061E0
3.878332250E0,-1.704886079E0,1.868794441E0,5.109274387E0
3.888332250E0,-3.897907972E0,1.874776483E0,2.699702263E0
3.898332250E0,-9.364311218E0,8.392825127E-1,-1.462433338E1
3.908332250E0,-1.684726524E1,-1.202393398E-1,-2.117767715E1
3.918332250E0,-2.509113884E1,-1.420140266E0,-1.963550186E1
3.928332250E0,-2.973979378E1,-1.974078655E0,-1.141496086E1
3.938332250E0,-3.361257935E1,-2.370090723E0,-1.322991657E1
3.948332250E0,-3.990330887E1,-6.173482537E-1,-1.364447308E1
3.958332250E0,-6.037211227E1,6.520441771E-1,-4.059722900E1
3.968332250E0,-7.110212708E1,-6.963114142E-1,-3.400859070E1
3.978332250E0,-7.437132263E1,-4.825725079E0,-2.373201561E1
3.988332250E0,-6.116772461E1,-2.322832584E0,-1.902293968E1
3.998332250E0,-4.918506622E1,-1.674377680E0,-2.508395958E1
4.008332250E0,-2.397129631E1,2.632105052E-1,-2.430988121E1
4.018332250E0,-1.558804321E1,4.049852192E-1,-2.072184372E1
4.028332250E0,-1.143529987E1,2.877369225E-1,-1.668216133E1
4.038332250E0,-1.055832958E1,-6.340979785E-2,-1.159143066E1
4.048332250E0,-1.239422321E1,-1.262812138E0,-4.140779495E0
4.058332250E0,-1.670728683E1,-2.246262312E0,5.230112076E0
4.068332250E0,-2.054058838E1,-1.756929994E0,1.056191921E1
4.078332250E0,-1.667378616E1,-5.491527915E-1,1.180798149E1
4.088332250E0,-1.054875851E1,4.121637046E-1,1.296550941E1
4.098332250E0,-5.164309502E0,9.122636318E-1,1.247198963E1
4.108332250E0,-1.279561877E0,1.886740685E0,1.224586773E1
4.118332250E0,2.283350945E0,2.513062000E0,1.359841156E1
4.128332250E0,2.081157446E0,1.151545882E0,1.356192017E1
4.138332250E0,2.532802820E0,-1.405783296E-1,1.169013500E1
4.148332250E0,3.454637766E0,-1.561316848E-1,9.877572060E0
4.158332250E0,5.760122299E0,-5.383851007E-2,9.419346809E0
4.168332250E0,8.546564102E0,-3.517449200E-1,9.715457916E0
4.178332250E0,1.004148006E1,-1.730010748E0,7.919046402E0
4.188332250E0,9.458230019E0,-2.511267424E0,3.903291941E0
4.198332250E0,8.596813202E0,-2.724228621E0,-1.035493970E0
4.208332250E0,7.349554539E0,-2.475973129E0,-4.101297855E0
4.218332250E0,5.815157413E0,-2.449652195E0,-6.658029079E0
4.228332250E0,-4.364508629E0,-1.189831018E0,-1.470987701E1
4.238332250E0,-1.434497166E1,8.087740541E-1,2.913261652E0
4.248332250E0,-1.745863152E1,-7.190431952E-1,-4.510470867E0
4.258332250E0,-1.749990845E1,-1.441077471E0,-1.341356564E1
4.268332250E0,-1.634297943E1,-1.317248821E0,-1.047398281E1
4.278332250E0,-1.267119217E1,-7.076773047E-1,-6.675975323E0
4.288332250E0,-6.052644730E0,2.422732860E-1,-4.438087940E0
4.298332250E0,-4.185046673E0,1.752742529E-1,-3.833899975E0
4.308332250E0,-2.739183664E0,-4.588237405E-1,-2.860021353E0
4.318332250E0,-9.978070259E-1,-1.083350420E0,-2.822334290E0
4.328332250E0,2.703889608E-1,-1.226321578E0,-3.625126362E0
4.338332250E0,5.449653864E-1,-9.242277741E-1,-4.420739651E0
4.348332250E0,8.315058798E-2,-6.035895348E-1,-4.468596458E0
4.358332250E0,-3.242274821E-1,-3.146561682E-1,-4.129413605E0
4.368332250E0,-5.425725579E-1,2.512463741E-2,-3.238685369E0
4.378332250E0,-6.747759581E-1,3.996013701E-1,-2.277369022E0
4.388332250E0,-7.573283911E-1,7.130611539E-1,-1.106082320E0
4.398332250E0,-7.573283911E-1,7.130611539E-1,-1.106082320E0
4.408332250E0,-4.606183469E-1,9.924231768E-1,3.062812984E-1
4.418332250E0,1.872383654E-1,1.125224829E0,-6.478567123E-1
4.428332250E0,-5.539384484E-1,8.799605370E-1,5.270192027E-1
4.438332250E0,-1.751546144E0,4.019941986E-1,3.505485058E-1
4.448332250E0,-1.856232166E0,-1.716850251E-1,-7.298108935E-2
4.458332250E0,-9.397810698E-1,-2.685943544E-1,-5.264209956E-2
4.468332250E0,1.286142170E-1,-3.403790295E-1,4.211367965E-1
4.478332250E0,1.019940615E0,-3.565305769E-1,1.326221943E0
4.488332250E0,1.694716692E0,-2.494517565E-1,2.334796667E0
4.498332250E0,2.072782516E0,8.733802289E-2,3.354139090E0
4.508332250E0,2.264806747E0,3.152543902E-1,4.522434711E0
4.518332250E0,1.709073544E0,5.760720372E-1,5.111667156E0
4.528332250E0,2.506481707E-1,8.943174481E-1,6.615556240E0
4.538332250E0,-2.035693884E0,1.360917926E0,7.450053215E0
4.548332250E0,-4.025325775E0,1.278365493E0,5.296513081E0
4.558332250E0,-1.289492130E1,2.266003132E0,-1.540618896E1
4.568332250E0,-2.124108696E1,2.388635159E0,-2.647957420E1
4.578332250E0,-2.949811935E1,7.896314859E-1,-1.226501083E1
4.588332250E0,-4.005345917E1,-1.432702541E0,-4.550550461E0
4.598332250E0,-4.887220764E1,-2.571686029E0,-4.035495281E0
4.608332250E0,-5.717230988E1,-2.685345173E0,-7.168298244E0
4.618332250E0,-7.101179504E1,-7.448258877E0,-2.280659103E1
4.628332250E0,-6.853582764E1,-5.094917774E0,-1.356670666E1
4.638332250E0,-5.949992752E1,-7.292127013E-1,-1.327896881E1
4.648332250E0,-4.796233368E1,7.477570772E-1,-1.519322777E1
4.658332250E0,-3.889712524E1,2.076970100E0,-1.753939056E1
4.668332250E0,-3.237070465E1,2.859423161E0,-1.823929024E1
4.678332250E0,-2.441157722E1,2.880360365E0,-1.680778503E1
4.688332250E0,-2.321695900E1,2.164906263E0,-1.352363491E1
4.698332250E0,-2.246920204E1,6.221339107E-1,-7.257431030E0
4.708332250E0,-2.283530426E1,-2.177468538E-1,9.589236975E-1
4.718332250E0,-2.098445702E1,-1.484148264E0,7.680362701E0
4.728332250E0,-1.075394344E1,-1.673779488E0,6.968497753E0
4.738332250E0,-4.575675011E0,-2.285145521E0,6.923034191E0
4.748332250E0,4.719842672E-1,-1.360917926E0,8.166703224E0
4.758332250E0,2.677568436E0,1.055234790E0,1.444307709E1
4.768332250E0,2.783450842E0,2.572284460E0,1.895773506E1
4.778332250E0,2.072184324E0,2.176870346E0,1.907019806E1
4.788332250E0,3.558725595E0,-6.089733839E-1,1.159202957E1
4.798332250E0,6.230910301E0,-5.383851007E-2,1.131266689E1
4.808332250E0,9.870991707E0,6.023930907E-1,1.274297714E1
4.818332250E0,1.283689499E1,4.265206456E-1,1.334716511E1
4.828332250E0,1.362951756E1,-7.782655358E-1,1.248096275E1
4.838332250E0,1.132463169E1,-1.985444546E0,1.601396561E0
4.848332250E0,8.810971260E0,-1.538584948E0,-4.187439755E-2
4.858332250E0,6.396014690E0,-1.480558991E0,-2.833101988E0
4.868332250E0,2.002194405E0,-9.547362328E-1,-1.813759613E1
4.878332250E0,-5.224728107E0,-6.933203340E-1,-1.760698700E1
4.888332250E0,-1.356251907E1,-9.272187948E-2,3.129213810E0
4.898332250E0,-2.141516495E1,1.076770201E-1,-1.359183121E1
4.908332250E0,-2.132662964E1,-1.686939895E-1,-1.148734283E1
4.918332250E0,-1.830030823E1,3.206382394E-1,-7.156932354E0
4.928332250E0,-1.068993473E1,9.224331379E-1,-3.547957659E0
4.938332250E0,-3.980460405E0,1.304686546E0,-3.464209080E0
4.948332250E0,6.747759581E-1,1.031306505E0,-2.546561480E0
4.958332250E0,1.098305583E0,3.595215976E-1,-2.152942181E0
4.968332250E0,1.302293777E0,-6.317051649E-1,-2.076970100E0
4.978332250E0,1.532004714E0,-1.411167145E0,-1.852642894E0
4.988332250E0,1.847259045E0,-1.837089539E0,-1.677966833E0
4.998332250E0,2.343171597E0,-1.986641049E0,-1.700698733E0
5.008332250E0,2.625524759E0,-1.421336651E0,-5.180460811E-1
5.018332250E0,1.948953986E0,-7.603194118E-1,3.463610709E-1
5.028332250E0,1.014556766E0,-8.973085135E-2,4.360919297E-1
5.038332250E0,2.871387079E-2,3.523431420E-1,6.346961856E-1
5.048332250E0,-8.309076428E-1,7.082754970E-1,9.858429432E-1
5.058332250E0,-1.481755376E0,9.774680734E-1,1.164108157E0
5.068332250E0,-1.229312658E0,9.505487680E-1,1.031306505E0
5.078332250E0,-8.075776696E-1,9.391828775E-1,9.026923180E-1
5.088332250E0,-4.157529473E-1,9.571290612E-1,8.045865893E-1
5.098332250E0,-1.806581169E-1,9.672985673E-1,8.207381964E-1
5.108332250E0,-1.316052489E-2,8.614161611E-1,7.800601721E-1
5.118332250E0,4.073780477E-1,3.822534084E-1,6.580262184E-1
5.128332250E0,5.491527915E-1,1.585244983E-1,7.567301393E-1
5.138332250E0,6.239284873E-1,-2.991028316E-2,7.980063558E-1
5.148332250E0,5.874379873E-1,-2.129612118E-1,9.284151793E-1
5.158332250E0,3.038884699E-1,-3.583251834E-1,9.026923180E-1
5.168332250E0,-2.458625287E-1,-5.575276613E-1,5.060819983E-1
5.178332250E0,-2.051845491E-1,5.144568533E-2,-6.502495408E-1
5.188332250E0,-1.513460279E-1,9.248259664E-1,-9.493523836E-1
5.198332250E0,-7.824530005E-1,1.738983870E0,7.118647546E-2
5.208332250E0,-2.289931297E0,2.216351986E0,4.031906128E-1
5.218332250E0,-5.484349728E0,2.796611547E0,-1.801197290E0
5.228332250E0,-1.815255165E1,2.072184324E0,-1.757229042E1
5.238332250E0,-2.619841766E1,1.294517040E0,-1.941596031E1
5.248332250E0,-3.571467209E1,1.070189953E0,-1.125105190E1
5.258332250E0,-4.580580521E1,1.806581169E-1,2.844467878E0
5.268332250E0,-6.004309845E1,-1.913061738E0,-7.171887875E0
5.278332250E0,-8.349814606E1,-5.739783287E0,-1.399143219E1
5.288332250E0,-8.518927002E1,-3.079562664E0,-1.039023399E1
5.298332250E0,-6.889115906E1,-9.619147182E-1,-7.673183918E0
5.308332250E0,-5.522455215E1,7.124629617E-1,-1.088435173E1
5.318332250E0,-4.441019058E1,1.147358418E0,-1.198325539E1
5.328332250E0,-3.667359543E1,1.281954765E0,-1.336630726E1
5.338332250E0,-2.797747993E1,8.362914920E-1,-6.544369698E0
5.348332250E0,-2.338984108E1,4.947160780E-1,-1.388435364E0
5.358332250E0,-1.966541290E1,-1.130608693E-1,2.792423964E0
5.368332250E0,-1.701775551E1,-1.196411327E-1,6.248258114E0
5.378332250E0,-1.446102333E1,8.973085321E-3,7.320242882E0
5.388332250E0,-8.092526436E0,-5.958128572E-1,8.483154297E0
5.398332250E0,-4.334598064E0,-8.315058947E-1,7.076773167E0
5.408332250E0,-9.577272534E-1,-6.191428304E-1,7.520043373E0
5.418332250E0,9.206385016E-1,1.902294010E-1,1.060678482E1
5.428332250E0,1.464407444E0,9.816554785E-1,1.310848045E1
5.438332250E0,1.384247899E0,1.129412293E0,1.442453289E1
5.448332250E0,6.552146435E0,-1.381855130E0,1.216630650E1
5.458332250E0,9.171091080E0,-4.851447940E-1,1.205803108E1
5.468332250E0,1.041057301E1,1.938186288E-1,1.307258797E1
5.478332250E0,1.048714352E1,-9.690931439E-2,1.553719521E1
5.488332250E0,9.966704369E0,-1.067198873E0,1.534277916E1
5.498332250E0,7.252645493E0,-1.108475089E0,7.810173035E0
5.508332250E0,4.477569580E0,-2.392822644E-3,4.907679081E0
5.518332250E0,3.339782238E0,-5.629115105E-1,1.150947690E0
5.528332250E0,3.273381472E0,-8.033902049E-1,-2.779263496E0
5.538332250E0,3.580260992E0,-2.045863420E-1,-9.220742226E0
5.548332250E0,2.796611547E0,4.289134443E-1,-2.797030258E1
5.558332250E0,-1.917069626E1,1.804786444E0,1.758365631E1
5.568332250E0,-2.472144699E1,-8.327022791E-1,6.970890522E0
5.578332250E0,-2.360100746E1,-2.341975212E0,-1.556351662E1
5.588332250E0,-1.688256073E1,-1.685743570E0,-9.384650230E0
5.598332250E0,-1.047278690E1,1.046859920E-1,-4.180859566E0
5.608332250E0,-3.570689678E0,1.519442350E-1,-1.767697692E0
5.618332250E0,-1.394417405E0,-2.572284266E-2,-1.275972724E0
5.628332250E0,1.716850251E-1,-1.698904037E-1,-3.720839322E-1
5.638332250E0,1.652842283E0,-4.827519655E-1,4.384847581E-1
5.648332250E0,3.212962627E0,-7.447660565E-1,4.582255483E-1
5.658332250E0,4.692325115E0,-6.586244106E-1,-2.452643216E-2
5.668332250E0,5.369493961E0,-5.084748194E-2,9.332008362E-1
5.678332250E0,4.865804672E0,2.219343036E-1,1.095912814E0
5.688332250E0,4.009174347E0,4.779663086E-1,8.434699774E-1
5.698332250E0,3.098107100E0,7.399803996E-1,8.817551732E-1
5.708332250E0,2.388635159E0,8.841479421E-1,7.363911867E-1
5.718332250E0,7.483552694E-1,7.812566161E-1,-1.658226132E0
5.728332250E0,5.383851007E-2,4.151547253E-1,1.087537885E0
5.738332250E0,-8.063812256E-1,2.051845491E-1,6.909275651E-1
5.748332250E0,-1.451845169E0,-2.632104978E-2,-3.050848842E-2
5.758332250E0,-1.741974831E0,-2.362912297E-1,-5.407779217E-1
5.768332250E0,-1.564906001E0,-4.181457460E-1,-5.946164131E-1
5.778332250E0,-7.668996453E-1,-2.189432681E-1,-2.171486616E-1
5.788332250E0,-5.886343718E-1,3.469592705E-2,1.776670814E-1
5.798332250E0,-4.803591371E-1,1.800599098E-1,4.336991012E-1
5.808332250E0,-4.869394004E-1,1.040877849E-1,7.776673436E-1
5.818332250E0,-3.852444589E-1,1.567298770E-1,1.197009563E0
5.828332250E0,-9.092725813E-2,4.755735099E-1,2.318047047E0
5.838332250E0,-1.623530149E0,1.359123230E0,4.599603176E0
5.848332250E0,-3.440878868E0,1.714457393E0,4.374079704E0
5.858332250E0,-4.942973614E0,1.731805444E0,5.431707501E-1
5.868332250E0,-9.007183075E0,2.268994093E0,-5.937191010E0
5.878332250E0,-1.499282837E1,1.869392633E0,-1.314018536E1
5.888332250E0,-3.135614586E1,-3.284149170E-1,-1.813221169E1
5.898332250E0,-4.126721573E1,-8.919246197E-1,3.768695593E-1
5.908332250E0,-4.126721573E1,-8.919246197E-1,3.768695593E-1
5.918332250E0,-4.126721573E1,-8.919246197E-1,3.768695593E-1
5.928332250E0,-4.126721573E1,-8.919246197E-1,3.768695593E-1
5.938332250E0,-4.881956482E1,-2.547159672E0,5.191228867E0
5.948332250E0,-2.720160866E1,-1.941775560E0,-1.573161221E1
5.958332250E0,-2.430689049E1,-1.194018483E0,-1.301755333E1
5.968332250E0,-2.178126717E1,-4.432703853E-1,-1.141675472E1
5.978332250E0,-1.870828438E1,-1.950150430E-1,-1.008754253E1
5.988332250E0,-1.518365574E1,4.366901144E-2,-8.545966148E0
5.998332250E0,-1.132881927E1,1.180259824E0,-5.187041283E0
6.008332250E0,-1.089093208E1,1.466800332E0,-3.336193085E0
6.018332250E0,-1.085982513E1,1.307079315E0,-2.243271112E0
6.028332250E0,-1.093220806E1,1.034297585E0,-1.992623091E0
6.038332250E0,-1.100040436E1,5.886343718E-1,-2.127219439E0
6.048332250E0,-1.110209846E1,-4.666004181E-1,-7.686942816E-1
6.058332250E0,-1.090050316E1,-9.906286001E-1,-5.892325640E-1
6.068332250E0,-1.043809032E1,-1.339980721E0,-5.515456200E-1
6.078332250E0,-9.678967476E0,-1.395613790E0,-8.895317912E-1
6.088332250E0,-8.658429146E0,-1.329213023E0,-1.201196909E0
6.098332250E0,-7.233502865E0,-1.259821177E0,-1.849053741E0
6.108332250E0,-3.955934048E0,-7.483552694E-1,-2.931207657E0
6.118332250E0,-2.722434044E0,-2.919243574E-1,-3.013760090E0
6.128332250E0,-1.779661894E0,1.674975902E-1,-2.870190859E0
6.138332250E0,-1.194616675E0,4.845465720E-1,-2.766701221E0
6.148332250E0,-9.230313301E-1,7.890332937E-1,-2.412563324E0
6.158332250E0,-1.317847013E0,1.303490162E0,-2.003988981E0
6.168332250E0,-1.923231244E0,1.163509965E0,-1.947159410E0
6.178332250E0,-2.816352367E0,6.867401004E-1,-1.761715651E0
6.188332250E0,-3.988237143E0,2.542374134E-1,-1.875374794E0
6.198332250E0,-4.783252239E0,-2.093719877E-2,-1.692323804E0
6.208332250E0,-5.291727066E0,-3.080759048E-1,-1.643869162E0
6.218332250E0,-6.136393547E0,-7.148557901E-1,-2.188834429E0
6.228332250E0,-6.538387775E0,-7.908278704E-1,-2.419741869E0
6.238332250E0,-6.850052834E0,-8.470591903E-1,-2.660818815E0
6.248332250E0,-7.018148899E0,-9.403793216E-1,-2.968894720E0
6.258332250E0,-7.101299286E0,-9.230313301E-1,-3.316452265E0
6.268332250E0,-7.222136974E0,-4.851447940E-1,-3.691527128E0
6.278332250E0,-7.157530785E0,-2.494517565E-1,-3.664607763E0
6.288332250E0,-6.922435760E0,-2.183450609E-1,-3.437887907E0
6.298332250E0,-6.657430649E0,-3.732803464E-1,-3.275774240E0
6.308332250E0,-6.422336102E0,-4.570291340E-1,-3.343371391E0
6.318332250E0,-6.471388817E0,-6.987041831E-1,-3.980460405E0
6.328332250E0,-7.993822098E0,-9.230313301E-1,-5.629115105E0
6.338332250E0,-9.774082184E0,-6.358926296E-1,-6.450451851E0
6.348332250E0,-1.167039394E1,-4.444667995E-1,-6.745965004E0
6.358332250E0,-1.299302673E1,-3.170489967E-1,-6.233303070E0
6.368332250E0,-1.416850090E1,-1.357926875E-1,-5.855835438E0
6.378332250E0,-1.513340664E1,4.295116663E-1,-3.813561201E0
6.388332250E0,-1.430130291E1,5.312066078E-1,-2.774477959E0
6.398332250E0,-1.177328587E1,4.277170599E-1,-2.169093609E0
6.408332250E0,-9.128618240E0,1.585244983E-1,-3.260220766E0
6.418332250E0,-7.687541008E0,3.128615618E-1,-4.286143780E0
6.428332250E0,-6.521637917E0,4.390829504E-1,-4.194019794E0
6.438332250E0,-5.292325497E0,4.205385745E-1,-4.873581409E0
6.448332250E0,-5.548955917E0,5.802594870E-2,-5.226522923E0
6.458332250E0,-6.457630157E0,-4.725824594E-1,-5.469992638E0
6.468332250E0,-7.815557003E0,-4.809573591E-1,-5.547759533E0
6.478332250E0,-8.650053978E0,-5.216353536E-1,-5.280361176E0
6.488332250E0,-9.522237778E0,-6.538388133E-1,-5.011766911E0
6.498332250E0,-9.711270332E0,-4.354937077E-1,-5.050052166E0
6.508332250E0,-9.750752449E0,-3.888336718E-1,-5.283950806E0
6.518332250E0,-9.658030510E0,-3.361915946E-1,-5.657230854E0
6.528332250E0,-9.146564484E0,7.058826834E-2,-5.782854080E0
6.538332250E0,-8.634500504E0,2.656033039E-1,-6.245266914E0
6.548332250E0,-7.837092400E0,-2.105683982E-1,-6.332006931E0
6.558332250E0,-7.655237675E0,-2.805584669E-1,-6.432505608E0
6.568332250E0,-7.654041290E0,-3.667000830E-1,-6.374479294E0
6.578332250E0,-7.542177200E0,-5.090730190E-1,-6.250052929E0
6.588332250E0,-7.483552933E0,-5.126622319E-1,-6.093322754E0
6.598332250E0,-7.639684677E0,-5.922235921E-2,-5.866602898E0
6.608332250E0,-7.754539967E0,1.196411345E-2,-5.733202934E0
6.618332250E0,-7.825726509E0,4.546362907E-2,-5.551946640E0
6.628332250E0,-7.938189030E0,2.877369225E-1,-5.662614822E0
6.638332250E0,-8.027321815E0,5.401797295E-1,-5.726024628E0
6.648332250E0,-7.968099594E0,7.896314859E-1,-5.866602898E0
6.658332250E0,-7.969893932E0,1.502692580E0,-5.776872158E0
6.668332250E0,-7.771289825E0,1.347159147E0,-5.595615864E0
6.678332250E0,-7.565506935E0,8.709874153E-1,-5.516652584E0
6.688332250E0,-7.414160728E0,4.941178858E-1,-5.581258774E0
6.698332250E0,-7.310671329E0,1.405783296E-1,-5.660222054E0
6.708332250E0,-7.222136974E0,-1.405783296E-1,-5.620740414E0
6.718332250E0,-7.204190731E0,-4.558327198E-1,-5.518447399E0
6.728332250E0,-7.203592777E0,-4.175475538E-1,-5.385047436E0
6.738332250E0,-7.261020184E0,9.391828626E-2,-5.369493961E0
6.748332250E0,-7.322635651E0,5.533402562E-1,-5.315655708E0
6.758332250E0,-7.381857872E0,8.446664214E-1,-5.160121918E0
6.768332250E0,-7.333403111E0,1.237089276E0,-5.258825779E0
6.778332250E0,-7.147361279E0,1.219741344E0,-5.297709465E0
6.788332250E0,-7.004390240E0,1.173081279E0,-5.474778175E0
6.798332250E0,-7.099504948E0,1.076171994E0,-5.587839127E0
6.808332250E0,-6.742375851E0,8.117650747E-1,-5.440082073E0
6.818332250E0,-6.546164513E0,6.460621357E-1,-5.669195175E0
6.828332250E0,-6.517450809E0,6.460621357E-1,-5.635695457E0
6.838332250E0,-6.628716946E0,8.560323119E-1,-5.469992638E0
6.848332250E0,-6.802794933E0,1.103091240E0,-5.427519798E0
6.858332250E0,-6.985247612E0,1.211964726E0,-5.379663467E0
6.868332250E0,-7.169494629E0,1.080957651E0,-5.248656273E0
6.878332250E0,-7.827520847E0,3.469592929E-1,-5.339583874E0
6.888332250E0,-7.952546120E0,-6.101697683E-2,-5.335396290E0
6.898332250E0,-8.194819450E0,-3.463610709E-1,-5.627320766E0
6.908332250E0,-8.452047348E0,-6.747759581E-1,-5.990431309E0
6.918332250E0,-8.734400749E0,-9.086744189E-1,-6.449853420E0
6.928332250E0,-8.666803360E0,-1.162313581E0,-6.772884369E0
6.938332250E0,-8.515457153E0,-9.092726111E-1,-7.576872826E0
6.948332250E0,-8.437092781E0,-7.417750359E-1,-7.797610760E0
6.958332250E0,-8.328219414E0,-6.640082598E-1,-7.813164234E0
6.968332250E0,-8.553144455E0,-4.983053207E-1,-7.617550850E0
6.978332250E0,-9.220144272E0,-1.788634956E-1,-7.473383427E0
6.988332250E0,-1.087119102E1,2.584248483E-1,-7.953144073E0
6.998332250E0,-1.135573769E1,3.780659735E-1,-8.079963684E0
7.008332250E0,-1.140419292E1,8.895317912E-1,-8.197810173E0
7.018332250E0,-1.154178047E1,5.521438122E-1,-8.566903114E0
7.028332250E0,-1.153699398E1,3.140579760E-1,-8.130811691E0
7.038332250E0,-1.147179031E1,4.217349887E-1,-7.331010342E0
7.048332250E0,-1.114636612E1,3.086143017E0,-5.245067120E0
7.058332250E0,-1.133240795E1,3.827319860E0,-4.734797955E0
7.068332250E0,-1.183729362E1,4.136591911E0,-3.756731510E0
7.078332250E0,-1.213101292E1,3.819543123E0,-3.027518749E0
7.088332250E0,-1.231525993E1,3.259024382E0,-2.697907448E0
7.098332250E0,-1.270409393E1,2.052443504E0,-1.618146300E0
7.108332250E0,-1.258804131E1,1.140179992E0,-1.234696507E0
7.118332250E0,-1.216750336E1,2.309073806E-1,-1.092323542E0
7.128332250E0,-1.153998566E1,-4.671986103E-1,-1.276570916E0
7.138332250E0,-1.082512951E1,-9.637092948E-1,-1.643869162E0
7.148332250E0,-1.018265629E1,-1.393819213E0,-2.059622049E0
7.158332250E0,-9.500701904E0,-1.695913076E0,-2.881556749E0
7.168332250E0,-9.384052277E0,-1.652842283E0,-3.321237803E0
7.178332250E0,-9.315856934E0,-1.461416483E0,-3.623929977E0
7.188332250E0,-9.190233231E0,-1.183250785E0,-3.784249067E0
7.198332250E0,-8.912666321E0,-8.273184299E-1,-3.950550079E0
7.208332250E0,-8.404789925E0,-2.811566554E-2,-4.069592953E0
7.218332250E0,-8.401798248E0,2.979064286E-1,-3.809373617E0
7.228332250E0,-8.402397156E0,6.101697683E-1,-3.435495138E0
7.238332250E0,-8.433503151E0,9.403793216E-1,-3.199203968E0
7.248332250E0,-8.471788406E0,1.117448211E0,-2.985644341E0
7.258332250E0,-8.365905762E0,1.229910851E0,-2.620140791E0
7.268332250E0,-7.716853142E0,1.083948612E0,-2.203191519E0
7.278332250E0,-7.369893551E0,8.195417523E-1,-2.126621008E0
7.288332250E0,-7.025925636E0,4.307080805E-1,-2.015953064E0
7.298332250E0,-6.620342255E0,-5.982056609E-4,-1.943570137E0
7.308332250E0,-6.393621922E0,-2.620140910E-1,-2.062014818E0
7.318332250E0,-6.037091732E0,-5.988038778E-1,-2.147558212E0
7.328332250E0,-5.888736725E0,-6.113662124E-1,-2.176870346E0
7.338332250E0,-5.789434433E0,-5.533402562E-1,-2.287538528E0
7.348332250E0,-5.770890236E0,-5.533402562E-1,-2.325823545E0
7.358332250E0,-5.740381718E0,-7.112665176E-1,-2.315654039E0
7.368332250E0,-5.706283569E0,-9.170492887E-1,-2.480758905E0
7.378332250E0,-5.742176056E0,-1.363310695E0,-2.863610506E0
7.388332250E0,-5.717649937E0,-1.530808330E0,-3.062813044E0
7.398332250E0,-5.654240131E0,-1.803590059E0,-3.314059258E0
7.408332250E0,-5.553741455E0,-1.928016901E0,-3.561118364E0
7.418332250E0,-5.703292847E0,-2.040479422E0,-4.031906128E0
7.428332250E0,-6.244070530E0,-1.507478237E0,-4.881358147E0
7.438332250E0,-6.426523209E0,-1.223330617E0,-5.426323414E0
7.448332250E0,-6.511468410E0,-1.052842021E0,-5.770291805E0
7.458332250E0,-6.656832695E0,-9.302098155E-1,-5.923432350E0
7.468332250E0,-6.832705021E0,-9.750752449E-1,-5.902495384E0
7.478332250E0,-7.238886833E0,-9.302098155E-1,-5.705087185E0
7.488332250E0,-8.335995674E0,-6.490531564E-1,-5.662614822E0
7.498332250E0,-9.056833267E0,-4.414757788E-1,-6.060421467E0
7.508332250E0,-9.742377281E0,-4.731806815E-1,-6.452246189E0
7.518332250E0,-1.038365364E1,-1.645065546E-1,-6.960721016E0
7.528332250E0,-1.078804111E1,4.001995921E-1,-7.325028419E0
7.538332250E0,-1.099322510E1,7.124629617E-1,-7.655237675E0
7.548332250E0,-1.085145092E1,2.446661144E-1,-7.829315662E0
7.558332250E0,-1.051645565E1,-8.578268886E-1,-7.994420528E0
7.568332250E0,-1.007079220E1,-1.542772412E0,-8.082356453E0
7.578332250E0,-9.671789169E0,-1.773679733E0,-8.140382767E0
7.588332250E0,-9.542576790E0,-1.695314884E0,-7.998608112E0
7.598332250E0,-1.126361465E1,-8.249256015E-1,-7.322635651E0
7.608332250E0,-1.249173069E1,-4.372883439E-1,-6.569494724E0
7.618332250E0,-1.329631710E1,-9.726824164E-1,-5.225326538E0
7.628332250E0,-1.376471233E1,-1.145563841E0,-3.751945972E0
7.638332250E0,-1.402074432E1,-1.589432478E0,-2.335394859E0
7.648332250E0,-1.405843163E1,-1.616351724E0,3.355933726E-1
7.658332250E0,-1.373360538E1,-1.387238979E0,7.082754970E-1
7.668332250E0,-1.320897961E1,-9.672985673E-1,3.397808075E-1
7.678332250E0,-1.264606762E1,-2.315055877E-1,-3.607180119E-1
7.688332250E0,-1.215075302E1,5.276173949E-1,-1.042074203E0
7.698332250E0,-1.178764248E1,1.055234790E0,-1.882553220E0
7.708332250E0,-1.063789082E1,4.163511395E-1,-3.430111170E0
7.718332250E0,-1.039202881E1,4.845465720E-1,-3.851846218E0
7.728332250E0,-1.010907745E1,2.955136001E-1,-3.946960926E0
7.738332250E0,-9.796813965E0,1.453639716E-1,-3.948157310E0
7.748332250E0,-9.446265221E0,5.982056609E-4,-3.910470486E0
7.758332250E0,-8.760722160E0,-4.606183469E-1,-3.543770313E0
7.768332250E0,-8.428119659E0,-6.771687865E-1,-3.387040377E0
7.778332250E0,-8.168498039E0,-8.183453679E-1,-3.382853031E0
7.788332250E0,-8.020741463E0,-7.399803996E-1,-3.226721287E0
7.798332250E0,-7.886145115E0,-6.376872063E-1,-2.975475073E0
7.808332250E0,-7.628318787E0,-5.198407173E-1,-2.782254457E0
7.818332250E0,-6.993024349E0,-3.266202807E-1,-2.582453728E0
7.828332250E0,-6.669394970E0,-2.039881349E-1,-2.571087837E0
7.838332250E0,-6.359524250E0,-9.571290761E-2,-2.588435888E0
7.848332250E0,-6.035895348E0,-1.136590727E-2,-2.690729141E0
7.858332250E0,-5.769095421E0,1.495514158E-2,-2.759522676E0
7.868332250E0,-5.405386448E0,-1.351944804E-1,-2.918047190E0
7.878332250E0,-5.423930645E0,-2.075773627E-1,-2.955136061E0
7.888332250E0,-5.556732178E0,-2.225325108E-1,-2.792423964E0
7.898332250E0,-5.714658737E0,-1.956132501E-1,-2.801397085E0
7.908332250E0,-5.968895912E0,-1.310070455E-1,-2.824128866E0
7.918332250E0,-6.246463299E0,-4.725824669E-2,-2.803789854E0
7.928332250E0,-6.597012043E0,2.572284266E-2,-2.897708178E0
7.938332250E0,-6.534798622E0,1.674975827E-2,-2.974278450E0
7.948332250E0,-6.455237389E0,3.589234129E-2,-3.203989506E0
7.958332250E0,-6.409175396E0,4.007977992E-2,-3.504886866E0
7.968332250E0,-6.419344902E0,-7.537391037E-2,-3.847060680E0
7.978332250E0,-6.702894211E0,-2.135594189E-1,-4.349553585E0
7.988332250E0,-6.843472958E0,-1.004985496E-1,-4.545166492E0
7.998332250E0,-6.970292568E0,2.691925503E-2,-4.727021217E0
8.008332250E0,-7.058826923E0,1.830509305E-1,-4.975276470E0
8.018332250E0,-7.153941631E0,3.774677813E-1,-5.362913609E0
8.028332250E0,-7.305287361E0,4.803591371E-1,-5.772684574E0
8.038332250E0,-7.847859859E0,3.248256743E-1,-6.550352097E0
8.048332250E0,-8.278568268E0,1.758724600E-1,-6.918846607E0
8.058332250E0,-8.664410591E0,-1.298106313E-1,-7.209574699E0
8.068332250E0,-9.046664238E0,-3.541377485E-1,-7.487142086E0
8.078332250E0,-9.439086914E0,-3.876372576E-1,-7.698906898E0
8.088332250E0,-1.006421185E1,3.092723191E-1,-8.048856735E0
8.098332250E0,-9.996614456E0,8.273184299E-1,-7.824530125E0
8.108332250E0,-9.771689415E0,1.302891970E0,-7.877171993E0
8.118332250E0,-9.635896683E0,1.610369682E0,-7.861020565E0
8.128332250E0,-9.731609344E0,1.710868239E0,-7.608577728E0
8.138332250E0,-1.066660500E1,1.673779488E0,-7.397411346E0
8.148332250E0,-1.369412422E1,1.073779106E0,-6.173482418E0
8.158332250E0,-1.445205021E1,1.007378340E0,-4.966303349E0
8.168332250E0,-1.461416435E1,1.722234130E0,-3.692723513E0
8.178332250E0,-1.481456280E1,1.612164259E0,-2.937189817E0
8.188332250E0,-1.483310795E1,1.398604870E0,-2.253440619E0
8.198332250E0,-1.378923893E1,3.774677813E-1,-1.155135155E0
8.208332250E0,-1.299960709E1,-2.225325108E-1,-1.188634634E0
8.218332250E0,-1.218544960E1,-6.029912829E-1,-1.509871125E0
8.228332250E0,-1.161775208E1,-9.924231768E-1,-2.454437733E0
8.238332250E0,-1.136052418E1,-9.397810698E-1,-3.372085333E0
8.248332250E0,-1.144427204E1,-1.009172916E0,-3.957728624E0
8.258332250E0,-1.171346474E1,-1.257428288E0,-4.664807796E0
8.268332250E0,-1.170209885E1,-9.996016622E-1,-4.810171604E0
8.278332250E0,-1.143350506E1,-5.898307562E-1,-4.695316315E0
8.288332250E0,-1.086700439E1,-1.722832322E-1,-4.468596458E0
8.298332250E0,-1.006480980E1,8.015955985E-2,-4.184448719E0
8.308332250E0,-8.570492744E0,4.731806815E-1,-3.781257868E0
8.318332250E0,-8.022536278E0,6.460621357E-1,-3.747758389E0
8.328332250E0,-7.572685242E0,7.950153351E-1,-3.465405464E0
8.338332250E0,-7.103692055E0,8.333004713E-1,-3.272783279E0
8.348332250E0,-6.768098831E0,7.698906660E-1,-3.169293642E0
8.358332250E0,-6.454041004E0,5.389832854E-1,-2.979064226E0
8.368332250E0,-5.748157978E0,-1.088734269E-1,-2.596810818E0
8.378332250E0,-5.382654667E0,-2.775674164E-1,-2.492722988E0
8.388332250E0,-5.112864017E0,-4.420739710E-1,-2.416750908E0
8.398332250E0,-4.915455818E0,-5.455635786E-1,-2.393420935E0
8.408332250E0,-4.764110088E0,-4.582255483E-1,-2.447259426E0
8.418332250E0,-4.747958183E0,-6.155536175E-1,-2.455634356E0
8.428332250E0,-4.857429981E0,-6.646065116E-1,-2.444866419E0
8.438332250E0,-5.018347263E0,-8.237292171E-1,-2.404786825E0
8.448332250E0,-5.222335339E0,-1.007976532E0,-2.502294302E0
8.458332250E0,-5.528018475E0,-1.121037364E0,-2.604587555E0
8.468332250E0,-5.925825119E0,-1.111466169E0,-2.773879766E0
8.478332250E0,-6.806982040E0,-1.173081279E0,-3.197409153E0
8.488332250E0,-6.929016113E0,-1.442872047E0,-3.309273720E0
8.498332250E0,-6.901498795E0,-1.515254974E0,-3.585046530E0
8.508332250E0,-6.837490559E0,-1.366899967E0,-3.958925009E0
8.518332250E0,-6.662814617E0,-1.342373490E0,-4.250849247E0
8.528332250E0,-6.008975983E0,-1.557727575E0,-4.820341110E0
8.538332250E0,-5.723631859E0,-1.675574064E0,-5.322235584E0
8.548332250E0,-5.630909920E0,-1.575075507E0,-5.623731613E0
8.558332250E0,-5.595017433E0,-1.465603828E0,-5.863611698E0
8.568332250E0,-5.637490273E0,-1.155733347E0,-6.160920143E0
8.578332250E0,-5.810371399E0,-7.513462901E-1,-6.397211552E0
8.588332250E0,-6.688537598E0,-5.204389244E-2,-6.745367050E0
8.598332250E0,-7.372884750E0,3.182454109E-1,-7.058826923E0
8.608332250E0,-8.225926399E0,7.878368497E-1,-7.486543655E0
8.618332250E0,-9.291928291E0,1.092323542E0,-7.907082558E0
8.628332250E0,-1.039920712E1,1.286740422E0,-8.092526436E0
8.638332250E0,-1.205384445E1,8.542376757E-1,-8.170292854E0
8.648332250E0,-1.231167030E1,3.014956415E-1,-8.164310455E0
8.658332250E0,-1.197906876E1,-5.617151260E-1,-8.283951759E0
8.668332250E0,-1.115354443E1,-1.549352646E0,-8.553144455E0
8.678332250E0,-1.006181908E1,-2.343769789E0,-8.782257080E0
8.688332250E0,-8.978468895E0,-2.687737942E0,-8.843274117E0
8.698332250E0,-8.391031265E0,-2.292922258E0,-8.244470596E0
8.708332250E0,-1.016530895E1,-2.040479422E0,-7.901698589E0
8.718332250E0,-1.257727432E1,-1.610967875E0,-6.812964439E0
8.728332250E0,-1.418525124E1,-1.266999602E0,-4.831707001E0
8.738332250E0,-1.463091373E1,-1.375872970E0,-2.600998163E0
8.748332250E0,-1.414995670E1,-1.184447169E0,-7.788637877E-1
8.758332250E0,-1.363849068E1,-6.047859192E-1,-6.382854581E-1
8.768332250E0,-1.304626751E1,-7.058826834E-2,-1.528415442E0
8.778332250E0,-1.254317665E1,1.704886109E-1,-2.634497643E0
8.788332250E0,-1.238824081E1,1.992024779E-1,-3.150749207E0
8.798332250E0,-1.243191051E1,1.028913707E-1,-3.373879910E0
8.808332250E0,-1.139641571E1,-1.203589797E0,-3.451048374E0
8.818332250E0,-1.080658531E1,-1.247258782E0,-3.997808456E0
8.828332250E0,-1.007677460E1,-1.265205026E0,-4.321437836E0
8.838332250E0,-9.205786705E0,-9.409775138E-1,-4.405784607E0
8.848332250E0,-8.459226608E0,-6.861419082E-1,-4.712664127E0
8.858332250E0,-7.631309509E0,-3.720839322E-1,-4.886742115E0
8.868332250E0,-7.341778278E0,-8.195417374E-2,-4.752744198E0
8.878332250E0,-7.338787079E0,2.727817893E-1,-4.440480709E0
8.888332250E0,-7.342974663E0,4.271188378E-1,-3.997808456E0
8.898332250E0,-7.205985546E0,3.720839322E-1,-3.592823267E0
8.908332250E0,-6.848856449E0,1.848455518E-1,-3.273979664E0
8.918332250E0,-6.130411625E0,-3.050848842E-1,-2.988635540E0
8.928332250E0,-5.788836002E0,-5.024927258E-1,-2.907877684E0
8.938332250E0,-5.471786976E0,-6.717849374E-1,-2.879761934E0
8.948332250E0,-5.239683151E0,-8.608179688E-1,-2.813361168E0
8.958332250E0,-5.123631477E0,-9.792626500E-1,-2.703291416E0
8.968332250E0,-5.332405090E0,-1.080957651E0,-2.610569477E0
8.978332250E0,-5.691926956E0,-1.018146038E0,-2.704487801E0
8.988332250E0,-5.991029739E0,-7.722834945E-1,-2.794816732E0
8.998332250E0,-6.254240036E0,-3.828516304E-1,-2.973082066E0
9.008332250E0,-6.446862221E0,1.890329868E-1,-3.142972469E0
9.018332250E0,-6.509075642E0,1.131206870E0,-3.264408350E0
9.028332250E0,-6.502495766E0,1.776072621E0,-3.560520172E0
9.038332250E0,-6.512066841E0,2.086541414E0,-3.820141315E0
9.048332250E0,-6.383452415E0,2.072782516E0,-3.982853174E0
9.058332250E0,-6.349953175E0,1.938784599E0,-4.192225456E0
9.068332250E0,-6.353542328E0,1.679761529E0,-4.447659016E0
9.078332250E0,-6.448657036E0,1.419542074E0,-4.778466702E0
9.088332250E0,-6.897311211E0,8.578268886E-1,-5.696712494E0
9.098332250E0,-7.036095142E0,6.257231236E-1,-6.075974941E0
9.108332250E0,-7.159923553E0,4.707878530E-1,-6.340980053E0
9.118332250E0,-7.341778278E0,3.631108403E-1,-6.539584160E0
9.128332250E0,-7.429116249E0,-9.272187948E-2,-6.687939167E0
9.138332250E0,-7.968697548E0,-9.631111026E-1,-6.425326824E0
9.148332250E0,-8.367700577E0,-1.196411371E0,-6.335596085E0
9.158332250E0,-9.011369705E0,-1.413560033E0,-6.454041004E0
9.168332250E0,-9.964311600E0,-1.495514154E0,-6.862615108E0
9.178332250E0,-1.081137085E1,-1.112662554E0,-7.304090977E0
9.188332250E0,-1.106919765E1,-7.998009920E-1,-7.576872826E0
9.198332250E0,-9.835099220E0,7.896314859E-1,-8.101499557E0
9.208332250E0,-9.125627518E0,1.437488198E0,-8.282755852E0
9.218332250E0,-9.270991325E0,1.867598057E0,-7.960920811E0
9.228332250E0,-1.129412270E1,2.121835470E0,-7.673782349E0
9.238332250E0,-1.358584881E1,1.557129383E0,-6.454041004E0
9.248332250E0,-1.527159214E1,9.619147182E-1,-2.791227579E0
9.258332250E0,-1.568016720E1,5.700899959E-1,-1.274178028E0
9.268332250E0,-1.572084522E1,2.889333367E-1,-4.941178858E-1
9.278332250E0,-1.522134304E1,7.896314561E-2,-4.624129832E-1
9.288332250E0,-1.400578880E1,-1.417747438E-1,-1.411765337E0
9.298332250E0,-1.247498131E1,-4.366901219E-1,-2.611167669E0
9.308332250E0,-1.077787113E1,1.275374413E0,-3.898506403E0
9.318332250E0,-1.091844940E1,1.441077471E0,-3.941577196E0
9.328332250E0,-1.148913765E1,1.511665702E0,-4.229912281E0
9.338332250E0,-1.169372463E1,1.317847013E0,-4.408177376E0
9.348332250E0,-1.158963680E1,9.116654396E-1,-4.453640938E0
9.358332250E0,-1.056311512E1,-2.111666054E-1,-3.993022680E0
9.368332250E0,-9.809376717E0,-6.203392744E-1,-4.066003799E0
9.378332250E0,-9.321838379E0,-6.257231236E-1,-4.130609989E0
9.388332250E0,-8.916254997E0,-5.497509837E-1,-4.124029636E0
9.398332250E0,-8.507680893E0,-2.297109663E-1,-4.028914928E0
9.408332250E0,-7.985447407E0,2.201396823E-1,-3.878167391E0
9.418332250E0,-6.942774773E0,9.349954724E-1,-3.327219963E0
9.428332250E0,-6.430710793E0,1.079761267E0,-3.021536827E0
9.438332250E0,-5.870192051E0,1.104885817E0,-2.700300455E0
9.448332250E0,-5.342574596E0,1.038485050E0,-2.507678032E0
9.458332250E0,-4.906482697E0,9.667003751E-1,-2.385644197E0
9.468332250E0,-4.509274483E0,4.827519655E-1,-2.350948334E0
9.478332250E0,-4.459024906E0,1.860419661E-1,-2.396411896E0
9.488332250E0,-4.570291042E0,-1.932204217E-1,-2.431107759E0
9.498332250E0,-4.737788677E0,-6.681957245E-1,-2.464607239E0
9.508332250E0,-4.949553490E0,-1.173679471E0,-2.760120869E0
9.518332250E0,-5.347360611E0,-1.723430514E0,-2.958725214E0
9.528332250E0,-6.301498413E0,-2.126022816E0,-3.360121250E0
9.538332250E0,-6.699305058E0,-2.144567251E0,-3.571886063E0
9.548332250E0,-6.997809887E0,-1.990230203E0,-3.786043644E0
9.558332250E0,-7.068397999E0,-1.718644857E0,-3.949951887E0
9.568332250E0,-6.923034191E0,-1.545763373E0,-4.133002758E0
9.578332250E0,-6.340381622E0,-1.220339537E0,-4.539782524E0
9.588332250E0,-6.024528980E0,-8.925228715E-1,-4.768297195E0
9.598332250E0,-5.885745525E0,-6.191428304E-1,-5.090730190E0
9.608332250E0,-5.956932068E0,-3.912265003E-1,-5.511867046E0
9.618332250E0,-6.324828625E0,-9.930214286E-2,-5.797809124E0
9.628332250E0,-6.796812534E0,1.782652885E-1,-6.035895348E0
9.638332250E0,-7.433303356E0,3.062812984E-1,-5.894718647E0
9.648332250E0,-7.695317745E0,2.560320199E-1,-5.868995667E0
9.658332250E0,-8.045866013E0,3.433700502E-1,-6.005984783E0
9.668332250E0,-8.435895920E0,5.401797295E-1,-6.138786316E0
9.678332250E0,-8.901300430E0,6.741777658E-1,-6.275177479E0
9.688332250E0,-1.096510983E1,3.690928817E-1,-7.452445984E0
9.698332250E0,-1.195394325E1,7.118647546E-2,-7.911868095E0
9.708332250E0,-1.252223873E1,-2.075773627E-1,-8.245068550E0
9.718332250E0,-1.234696484E1,-9.326026440E-1,-8.030911446E0
9.728332250E0,-1.135513973E1,-1.554736495E0,-7.878966808E0
9.738332250E0,-1.037527943E1,-1.718046665E0,-8.136195183E0
9.748332250E0,-9.174679756E0,-2.261217356E0,-8.044071198E0
9.758332250E0,-9.278767586E0,-1.062413216E0,-8.438887596E0
9.768332250E0,-1.040279675E1,4.289134443E-1,-8.567501068E0
9.778332250E0,-1.236610699E1,1.350748420E0,-7.518846989E0
9.788332250E0,-1.411765385E1,1.277169108E0,-5.423930645E0
9.798332250E0,-1.412543011E1,-1.277767301E0,-1.750947952E0
9.808332250E0,-1.335972691E1,-1.253240824E0,-6.394818425E-1
9.818332250E0,-1.242652607E1,-5.150550604E-1,2.153540403E-2
9.828332250E0,-1.149631596E1,1.106680483E-1,-1.028913707E-1
9.838332250E0,-1.080718327E1,1.914258115E-2,-9.553344250E-1
9.848332250E0,-1.055892849E1,-4.642075896E-1,-1.921436548E0
9.858332250E0,-1.002712345E1,-1.088734269E0,-2.840280533E0
9.868332250E0,-1.026939678E1,-1.159322619E0,-3.538984776E0
9.878332250E0,-1.044467068E1,-1.280758262E0,-3.474976778E0
9.888332250E0,-1.049731255E1,-1.300499082E0,-3.470191002E0
9.898332250E0,-1.019282627E1,-1.226321578E0,-3.605983734E0
9.908332250E0,-8.656634331E0,-6.669993401E-1,-4.015156269E0
9.918332250E0,-7.794619560E0,9.690931439E-2,-4.193421841E0
9.928332250E0,-7.428517818E0,6.071787477E-1,-4.470989227E0
9.938332250E0,-7.397411346E0,8.273184299E-1,-4.487140656E0
9.948332250E0,-7.337590694E0,1.317248821E0,-4.090530396E0
9.958332250E0,-7.252047062E0,1.514656782E0,-3.797409534E0
9.968332250E0,-6.981658459E0,3.906283081E-1,-2.731407166E0
9.978332250E0,-6.815955162E0,-2.865405083E-1,-2.464607239E0
9.988332250E0,-6.623332977E0,-9.786644578E-1,-2.484348059E0
9.998332250E0,-6.431309223E0,-1.584646821E0,-2.538186550E0
1.000833225E1,-6.193223000E0,-2.027318954E0,-2.598007202E0
1.001833225E1,-5.703890800E0,-2.401795626E0,-3.017947674E0
1.002833225E1,-5.591428280E0,-2.291127682E0,-3.181855917E0
1.003833225E1,-5.729613781E0,-1.924427629E0,-3.355335474E0
1.004833225E1,-5.931807518E0,-1.328016520E0,-3.382254839E0
1.005833225E1,-6.068796635E0,-4.187439568E-3,-3.391826153E0
1.006833225E1,-6.273981094E0,8.691928387E-1,-3.544966698E0
1.007833225E1,-6.485147476E0,1.494317770E0,-3.510270834E0
1.008833225E1,-6.429514408E0,1.633101463E0,-3.607180119E0
1.009833225E1,-6.263811588E0,1.696511269E0,-3.742374659E0
1.010833225E1,-5.944369793E0,1.607976794E0,-4.063013077E0
1.011833225E1,-5.653641701E0,1.494915962E0,-4.345366001E0
1.012833225E1,-5.763711452E0,1.267597795E0,-4.872385025E0
1.013833225E1,-6.051448345E0,1.101296663E0,-5.298307419E0
1.014833225E1,-6.430112839E0,9.433703423E-1,-5.772086620E0
1.015833225E1,-6.831508636E0,7.423732281E-1,-6.139982700E0
1.016833225E1,-7.101299286E0,7.531409264E-1,-6.443871498E0
1.017833225E1,-7.220940590E0,7.184450030E-1,-6.519245148E0
1.018833225E1,-7.637291908E0,3.074777126E-1,-6.522834301E0
1.019833225E1,-7.746763229E0,-3.349951804E-1,-6.713063717E0
1.020833225E1,-8.121239662E0,-9.140582681E-1,-7.082755089E0
1.021833225E1,-9.030512810E0,-1.134796143E0,-7.662416458E0
1.022833225E1,-1.037408257E1,-1.114457130E0,-7.788039684E0
1.023833225E1,-1.222672558E1,-1.101894855E0,-7.352545738E0
1.024833225E1,-1.190608692E1,-1.041476011E0,-7.221538544E0
1.025833225E1,-1.095972633E1,-7.555337548E-1,-7.625327587E0
1.026833225E1,-9.916455269E0,-6.077769399E-1,-8.004590034E0
1.027833225E1,-9.488140106E0,-4.965107143E-2,-8.225926399E0
1.028833225E1,-9.011369705E0,-1.441675574E-1,-7.703692436E0
1.029833225E1,-1.036750221E1,2.422732860E-1,-6.825526714E0
1.030833225E1,-1.264128208E1,1.009771109E0,-5.191826820E0
1.031833225E1,-1.393161201E1,1.001994491E0,-3.338585854E0
1.032833225E1,-1.440838146E1,1.067797065E0,-2.129612207E0
1.033833225E1,-1.473739433E1,1.526620865E0,-1.158126116E0
1.034833225E1,-1.469372559E1,2.553740025E0,-1.363908947E-1
1.035833225E1,-1.447896957E1,2.548954248E0,-1.010369420E0
1.036833225E1,-1.397767353E1,1.985444546E0,-2.215753794E0
1.037833225E1,-1.284467220E1,1.751546144E0,-2.563909531E0
1.038833225E1,-1.101057339E1,2.437089920E0,-3.361915827E0
1.039833225E1,-9.846465111E0,2.507678032E0,-4.457230568E0
1.040833225E1,-9.178867340E0,2.114058733E0,-5.507081509E0
1.041833225E1,-9.275178909E0,1.797608018E0,-5.308476925E0
1.042833225E1,-9.539586067E0,1.054038405E0,-5.110470772E0
1.043833225E1,-9.813564301E0,-1.776670814E-1,-4.965705395E0
1.044833225E1,-1.001874828E1,-1.122233868E0,-4.867001057E0
1.045833225E1,-1.025503922E1,-1.233500123E0,-4.506881237E0
1.046833225E1,-9.773484230E0,-9.170492887E-1,-4.188037872E0
1.047833225E1,-9.187242508E0,-5.952146053E-1,-3.974478483E0
1.048833225E1,-8.527421951E0,-1.250249892E-1,-3.943969965E0
1.049833225E1,-7.731209755E0,2.279163599E-1,-3.726821184E0
1.050833225E1,-6.835097790E0,5.575276613E-1,-3.568296671E0
1.051833225E1,-5.173282623E0,8.327022791E-1,-3.322434187E0
1.052833225E1,-4.718048096E0,9.529415965E-1,-2.901895761E0
1.053833225E1,-4.472783566E0,1.056431174E0,-2.541775942E0
1.054833225E1,-4.332205296E0,1.044467092E0,-2.194218397E0
1.055833225E1,-4.377668858E0,9.158528447E-1,-1.925624013E0
1.056833225E1,-5.035695076E0,3.738785386E-1,-1.722234130E0
1.057833225E1,-5.500501156E0,-8.374879137E-3,-1.735394597E0
1.058833225E1,-5.665007591E0,-3.643072546E-1,-1.827518344E0
1.059833225E1,-5.682953835E0,-6.047859192E-1,-2.078166485E0
1.060833225E1,-5.788238049E0,-7.788637877E-1,-2.386242390E0
1.061833225E1,-6.303293228E0,-1.095912814E0,-2.781058073E0
1.062833225E1,-6.732206345E0,-1.149751306E0,-3.483949661E0
1.063833225E1,-6.774679184E0,-9.260223508E-1,-3.853042603E0
1.064833225E1,-6.805785656E0,-7.878368497E-1,-4.049253941E0
1.065833225E1,-6.691528320E0,-8.063812256E-1,-4.173680782E0
1.066833225E1,-6.567101955E0,-9.445667267E-1,-4.445266247E0
1.067833225E1,-6.726224422E0,-1.244866014E0,-5.248058319E0
1.068833225E1,-6.959524632E0,-1.095314622E0,-5.676971912E0
1.069833225E1,-7.125825882E0,-9.349954724E-1,-6.034698486E0
1.070833225E1,-7.302894592E0,-8.793623447E-1,-6.024528980E0
1.071833225E1,-7.566105366E0,-7.615157962E-1,-5.866602898E0
1.072833225E1,-7.902894974E0,-5.306084156E-1,-5.861817360E0
1.073833225E1,-8.732605934E0,4.313062727E-1,-6.393621922E0
1.074833225E1,-9.352347374E0,1.061216831E0,-6.756732941E0
1.075833225E1,-1.018086243E1,1.554736495E0,-7.042077065E0
1.076833225E1,-1.104885864E1,1.138983607E0,-7.362715244E0
1.077833225E1,-1.169133186E1,2.135594189E-1,-7.666603565E0
1.078833225E1,-1.128275681E1,-1.524826288E0,-7.693522930E0
1.079833225E1,-1.017906761E1,-1.892124534E0,-7.587640762E0
1.080833225E1,-9.649057388E0,-2.235494614E0,-7.359126091E0
1.081833225E1,-9.982257843E0,-1.447059512E0,-6.624529362E0
1.082833225E1,-1.213101292E1,4.067798331E-2,-6.227321148E0
1.083833225E1,-1.470030594E1,3.170489967E-1,-4.444668293E0
1.084833225E1,-1.767099571E1,2.177468538E-1,-6.490531564E-1
1.085833225E1,-1.809871292E1,-2.757728100E-1,6.735795736E-1
1.086833225E1,-1.789591980E1,-6.215356588E-1,1.309472203E0
1.087833225E1,-1.690529251E1,-9.044869542E-1,1.081555843E0
1.088833225E1,-1.475773335E1,-1.484148264E0,3.002992272E-1
1.089833225E1,-1.112243748E1,-1.883151412E0,-2.579462767E0
1.090833225E1,-1.025503922E1,-1.738983870E0,-3.696911097E0
1.091833225E1,-9.620942116E0,-1.365703583E0,-4.204189301E0
1.092833225E1,-9.025727272E0,-7.866404653E-1,-4.484149456E0
1.093833225E1,-8.568697929E0,-1.405783296E-1,-4.491926193E0
1.094833225E1,-8.185248375E0,3.224328458E-1,-4.369294167E0
1.095833225E1,-7.648059368E0,6.771687865E-1,-4.284348965E0
1.096833225E1,-7.657630444E0,6.628118753E-1,-4.289134502E0
1.097833225E1,-7.823931694E0,6.185446382E-1,-4.182653904E0
1.098833225E1,-8.118248940E0,5.635097623E-1,-3.980460405E0
1.099833225E1,-8.431110382E0,4.797609448E-1,-3.624528170E0
1.100833225E1,-8.249256134E0,-1.627119333E-1,-2.986840963E0
1.101833225E1,-7.794619560E0,-6.604190469E-1,-2.833101988E0
1.102833225E1,-7.188039303E0,-1.075573802E0,-2.795415163E0
1.103833225E1,-6.510870457E0,-1.360917926E0,-2.715853691E0
1.104833225E1,-5.901896954E0,-1.493719578E0,-2.618346214E0
1.105833225E1,-5.376074314E0,-1.392024517E0,-2.388635159E0
1.106833225E1,-4.609174728E0,-9.487541914E-1,-2.148754835E0
1.107833225E1,-4.454239368E0,-6.981059909E-1,-2.156531334E0
1.108833225E1,-4.438087940E0,-3.391826153E-1,-2.111665964E0
1.109833225E1,-4.561318398E0,4.725824669E-2,-2.127817631E0
1.110833225E1,-4.848456860E0,4.504488707E-1,-2.315654039E0
1.111833225E1,-4.848456860E0,4.504488707E-1,-2.315654039E0
1.112833225E1,-5.746363640E0,9.619147182E-1,-3.072384357E0
1.113833225E1,-6.078367710E0,1.029511929E0,-3.356531858E0
1.114833225E1,-6.296114445E0,1.098305583E0,-3.680161238E0
1.115833225E1,-6.536593437E0,1.080957651E0,-4.060021877E0
1.116833225E1,-6.807580471E0,1.273579836E0,-4.255635262E0
1.117833225E1,-6.892525673E0,1.377069473E0,-4.771288395E0
1.118833225E1,-6.923034191E0,1.342373490E0,-5.114060402E0
1.119833225E1,-6.893123627E0,1.112064362E0,-5.336592674E0
1.120833225E1,-6.975078106E0,1.077368379E0,-5.507679462E0
1.121833225E1,-7.045666218E0,8.895317912E-1,-5.715256691E0
1.122833225E1,-7.198208809E0,5.952146053E-1,-6.108277798E0
1.123833225E1,-7.931608677E0,-5.330012441E-1,-6.686144829E0
1.124833225E1,-8.591429710E0,-9.314061999E-1,-6.588637352E0
1.125833225E1,-9.393025398E0,-1.121037364E0,-6.687341213E0
1.126833225E1,-1.037408257E1,-1.054038405E0,-6.763313293E0
1.127833225E1,-1.149870968E1,-9.690931439E-1,-6.838686943E0
1.128833225E1,-1.317189026E1,-6.275177598E-1,-7.198208809E0
1.129833225E1,-1.278664589E1,-9.332008660E-2,-7.447660446E0
1.130833225E1,-1.159382439E1,6.119644046E-1,-7.498507977E0
1.131833225E1,-1.036271667E1,1.197607756E0,-7.667799950E0
1.132833225E1,-9.471988678E0,1.396211982E0,-7.980063438E0
1.133833225E1,-9.238089561E0,1.335793257E0,-8.104490280E0
1.134833225E1,-1.239242840E1,5.461617708E-1,-5.924030781E0
1.135833225E1,-1.347697544E1,5.090730190E-1,-3.294318676E0
1.136833225E1,-1.395494175E1,5.527420044E-1,-1.412961721E0
1.137833225E1,-1.411585903E1,6.305087805E-1,-1.441675574E-1
1.138833225E1,-1.421815205E1,3.403790295E-1,8.410771489E-1
1.139833225E1,-1.458066463E1,-8.213363886E-1,6.376872063E-1
1.140833225E1,-1.474038601E1,-7.298108935E-1,-4.115654826E-1
1.141833225E1,-1.454596901E1,2.644068897E-1,-1.550549030E0
1.142833225E1,-1.375274849E1,1.226321578E0,-2.630908489E0
1.143833225E1,-1.335494137E1,1.418345571E0,-3.798007727E0
1.144833225E1,-1.306959724E1,1.150947690E0,-4.575077057E0
1.145833225E1,-1.191506004E1,5.240281820E-1,-5.154139996E0
1.146833225E1,-1.084247780E1,1.381855011E-1,-4.661816597E0
1.147833225E1,-9.630513191E0,-4.666004181E-1,-4.339982033E0
1.148833225E1,-8.718847275E0,-7.441678643E-1,-4.176671982E0
1.149833225E1,-8.006384850E0,-9.804590940E-1,-3.730410576E0
1.150833225E1,-7.263412952E0,-4.360919297E-1,-3.247658491E0
1.151833225E1,-7.048058987E0,1.262213886E-1,-3.081955671E0
1.152833225E1,-6.745367050E0,4.785645306E-1,-3.067000389E0
1.153833225E1,-6.428318024E0,8.117650747E-1,-3.047857761E0
1.154833225E1,-6.090929985E0,1.010967612E0,-3.027518749E0
1.155833225E1,-5.732604980E0,1.134197950E0,-2.877967358E0
1.156833225E1,-4.921437740E0,1.324427366E0,-2.745764017E0
1.157833225E1,-4.586442947E0,1.414158225E0,-2.605783939E0
1.158833225E1,-4.356133461E0,1.421336651E0,-2.411366940E0
1.159833225E1,-4.297509670E0,1.379462242E0,-2.268395901E0
1.160833225E1,-4.382454872E0,1.259222865E0,-2.214557409E0
1.161833225E1,-4.910670280E0,4.689932466E-1,-2.334198475E0
1.162833225E1,-5.140381336E0,-1.172483116E-1,-2.519043922E0
1.163833225E1,-5.455037594E0,-9.684949517E-1,-3.006581545E0
1.164833225E1,-6.054439545E0,-1.424925923E0,-3.271586657E0
1.165833225E1,-6.541378975E0,-1.606780410E0,-3.467200041E0
1.166833225E1,-6.755536556E0,-1.849053741E0,-3.750151396E0
1.167833225E1,-6.627520561E0,-1.925624013E0,-4.132404804E0
1.168833225E1,-6.670591354E0,-2.084746838E0,-4.416552544E0
1.169833225E1,-6.687341213E0,-1.984846354E0,-4.670191765E0
1.170833225E1,-6.718447685E0,-1.890329838E0,-4.971088886E0
1.171833225E1,-6.803392887E0,-1.647458434E0,-5.201398373E0
1.172833225E1,-6.803392887E0,-1.647458434E0,-5.201398373E0
1.173833225E1,-7.174280643E0,-7.728816867E-1,-5.944967747E0
1.174833225E1,-7.268198967E0,-6.161518097E-1,-6.241677761E0
1.175833225E1,-7.312466145E0,-4.540380836E-1,-6.156732559E0
1.176833225E1,-7.449455261E0,-5.647061467E-1,-6.031109333E0
1.177833225E1,-7.676773071E0,-8.015955687E-1,-6.022734642E0
1.178833225E1,-8.011768341E0,-3.553341627E-1,-6.181857109E0
1.179833225E1,-8.109275818E0,3.134597540E-1,-6.272186279E0
1.180833225E1,-8.160721779E0,8.183453679E-1,-6.867401123E0
1.181833225E1,-8.394619942E0,1.335793257E0,-7.642675400E0
1.182833225E1,-8.931808472E0,1.832303882E0,-8.005187988E0
1.183833225E1,-9.674779892E0,2.350948334E0,-8.338987350E0
1.184833225E1,-9.622735977E0,1.901097536E0,-8.440681458E0
1.185833225E1,-9.331410408E0,9.086744189E-1,-8.444271088E0
1.186833225E1,-9.162117958E0,-2.093719840E-1,-8.317451477E0
1.187833225E1,-9.547362328E0,-4.785645306E-1,-7.516454220E0
1.188833225E1,-1.120738316E1,1.854437590E-2,-6.966702938E0
1.189833225E1,-1.631785393E1,-2.907279432E-1,-4.096512318E0
1.190833225E1,-1.741735649E1,-7.124629617E-1,-2.179263115E0
1.191833225E1,-1.819681740E1,-1.167099237E0,-1.269392371E0
1.192833225E1,-1.838884163E1,-1.926820397E0,-1.752742529E-1
1.193833225E1,-1.789831352E1,-2.800798893E0,5.629115105E-1
1.194833225E1,-1.394716454E1,-4.674977303E0,-4.761717021E-1
1.195833225E1,-1.167039394E1,-4.284348965E0,-2.152343988E0
1.196833225E1,-1.032323551E1,-3.625126362E0,-3.681955814E0
1.197833225E1,-9.561718941E0,-3.178864956E0,-4.381856441E0
1.198833225E1,-9.477372169E0,-2.523231506E0,-4.501497746E0
1.199833225E1,-9.572486877E0,-1.566700578E0,-4.422534466E0
1.200833225E1,-9.241081238E0,3.320041299E-1,-4.258028030E0
1.201833225E1,-9.011369705E0,9.756734371E-1,-4.006781578E0
1.202833225E1,-8.935398102E0,1.618146300E0,-3.787838221E0
1.203833225E1,-8.903693199E0,1.944766641E0,-3.585644722E0
1.204833225E1,-8.622536659E0,1.627119422E0,-3.422334671E0
1.205833225E1,-8.096115112E0,6.131607890E-1,-3.312862873E0
1.206833225E1,-7.652246952E0,1.674975902E-1,-3.336193085E0
1.207833225E1,-7.174280643E0,-3.541377485E-1,-3.382853031E0
1.208833225E1,-6.786045074E0,-8.285148144E-1,-3.181257725E0
1.209833225E1,-6.521637917E0,-1.342373490E0,-2.897109985E0
1.210833225E1,-6.306283951E0,-1.818545222E0,-2.785245657E0
1.211833225E1,-6.172286034E0,-2.223530531E0,-2.673381090E0
1.212833225E1,-6.077769279E0,-2.146361828E0,-2.712264538E0
1.213833225E1,-5.989833355E0,-1.925624013E0,-2.819343328E0
1.214833225E1,-5.811567783E0,-1.550549030E0,-2.813959360E0
1.215833225E1,-5.594419479E0,-8.883354068E-1,-2.963510752E0
1.216833225E1,-5.641079426E0,8.811569214E-1,-3.191427231E0
1.217833225E1,-5.615954876E0,1.264008522E0,-3.175275564E0
1.218833225E1,-5.566901684E0,1.488933921E0,-3.377469063E0
1.219833225E1,-5.573482037E0,1.569691658E0,-3.583251953E0
1.220833225E1,-5.687141418E0,1.362114310E0,-3.752544165E0
1.221833225E1,-5.833103180E0,1.045065284E0,-3.868596077E0
1.222833225E1,-5.873781204E0,7.328019142E-1,-4.085146427E0
1.223833225E1,-5.784050465E0,7.238288522E-1,-4.252644062E0
1.224833225E1,-5.612963676E0,6.813562512E-1,-4.544568539E0
1.225833225E1,-5.485546112E0,7.010970116E-1,-4.817350388E0
1.226833225E1,-5.410770416E0,6.197410822E-1,-5.217549801E0
1.227833225E1,-5.507081509E0,5.120640397E-1,-5.588437080E0
1.228833225E1,-5.724229813E0,6.149554253E-1,-5.773880959E0
1.229833225E1,-5.871388435E0,7.800601721E-1,-6.102894306E0
1.230833225E1,-6.007779598E0,9.649057388E-1,-6.346961975E0
1.231833225E1,-6.291927338E0,1.105484009E0,-6.470192432E0
1.232833225E1,-6.731009960E0,8.757730722E-1,-6.766304016E0
1.233833225E1,-8.456833839E0,-4.534398913E-1,-7.365706444E0
1.234833225E1,-9.586245537E0,-6.143572330E-1,-7.858627796E0
1.235833225E1,-1.061575794E1,-5.527420044E-1,-8.167900085E0
1.236833225E1,-1.139163017E1,-4.989035130E-1,-8.364111900E0
1.237833225E1,-1.175892830E1,-2.297109663E-1,-8.526225090E0
1.238833225E1,-1.102552891E1,9.798609018E-1,-7.824530125E0
1.239833225E1,-1.059721375E1,1.802991867E0,-7.556533813E0
1.240833225E1,-1.097109222E1,2.058425665E0,-7.284350395E0
1.241833225E1,-1.227637672E1,1.543370605E0,-7.372884750E0
1.242833225E1,-1.370369530E1,9.367900491E-1,-7.264011383E0
1.243833225E1,-1.450050545E1,1.085743308E0,-5.863611698E0
1.244833225E1,-1.533440399E1,1.698904037E0,-2.557927370E0
1.245833225E1,-1.563111401E1,2.054238319E0,-1.033101201E0
1.246833225E1,-1.544327736E1,1.996212244E0,-5.144568533E-2
1.247833225E1,-1.473021603E1,1.491924882E0,8.673982322E-2
1.248833225E1,-1.376112270E1,8.727820516E-1,-3.912265003E-1
1.249833225E1,-1.268913841E1,-1.788634956E-1,-1.987239242E0
1.250833225E1,-1.242832088E1,-8.763712645E-1,-2.679363251E0
1.251833225E1,-1.220040417E1,-1.642074585E0,-3.533600807E0
1.252833225E1,-1.192223835E1,-2.302493572E0,-4.441078663E0
1.253833225E1,-1.141974640E1,-2.681756020E0,-5.023132801E0
1.254833225E1,-1.078445148E1,-2.613560438E0,-5.041677475E0
1.255833225E1,-9.161520004E0,-1.490728498E0,-4.359124660E0
1.256833225E1,-8.499305725E0,-7.088736892E-1,-4.177868366E0
1.257833225E1,-8.071588516E0,1.333998591E-1,-4.010370731E0
1.258833225E1,-7.742575645E0,8.644071817E-1,-3.822534084E0
1.259833225E1,-7.456035137E0,1.427318692E0,-3.699902058E0
1.260833225E1,-6.996613503E0,2.015953064E0,-3.454637766E0
1.261833225E1,-6.764509678E0,1.865803480E0,-3.168097258E0
1.262833225E1,-6.430710793E0,1.668395638E0,-2.868396044E0
1.263833225E1,-6.092724800E0,1.490728498E0,-2.573480844E0
1.264833225E1,-5.840879917E0,1.283151150E0,-2.315654039E0
1.265833225E1,-5.618347645E0,1.070189953E0,-2.172084808E0
1.266833225E1,-5.087141037E0,6.119644046E-1,-1.986042738E0
1.267833225E1,-4.883152962E0,3.266202807E-1,-1.956132531E0
1.268833225E1,-4.685146809E0,6.041877344E-2,-2.008176327E0
1.269833225E1,-4.543970108E0,-2.973082066E-1,-2.163111687E0
1.270833225E1,-4.526622295E0,-6.855437160E-1,-2.318047047E0
1.271833225E1,-5.130809784E0,-1.185045362E0,-2.682354212E0
1.272833225E1,-5.782854080E0,-1.487737536E0,-2.671586514E0
1.273833225E1,-6.071787357E0,-1.797009826E0,-2.748754978E0
1.274833225E1,-6.187241077E0,-1.889731646E0,-3.104687452E0
1.275833225E1,-6.357729912E0,-1.772483349E0,-3.414557934E0
1.276833225E1,-6.430112839E0,-1.759322882E0,-3.524029493E0
1.277833225E1,-6.348756790E0,-1.878963947E0,-3.738187075E0
1.278833225E1,-6.373881340E0,-1.893919110E0,-4.014558315E0
1.279833225E1,-6.424130440E0,-1.871785522E0,-4.405784607E0
1.280833225E1,-6.428318024E0,-1.724626899E0,-4.864608288E0
1.281833225E1,-6.386443615E0,-1.328016520E0,-5.239683151E0
1.282833225E1,-6.671787739E0,-3.320041299E-1,-5.884549141E0
1.283833225E1,-6.930810928E0,1.142572835E-1,-6.182455540E0
1.284833225E1,-7.292725086E0,4.169493318E-1,-6.225526333E0
1.285833225E1,-7.887341499E0,5.880361795E-1,-6.256632805E0
1.286833225E1,-9.107681274E0,3.978067636E-1,-6.900900364E0
1.287833225E1,-1.028794098E1,5.192425251E-1,-7.486543655E0
1.288833225E1,-1.227159119E1,8.512466550E-1,-8.636295319E0
1.289833225E1,-1.277228928E1,5.539384484E-1,-8.940781593E0
1.290833225E1,-1.318864059E1,4.773681164E-1,-9.123832703E0
1.291833225E1,-1.258385468E1,-3.379862010E-1,-8.372486115E0
1.292833225E1,-1.147956657E1,-1.159322619E0,-8.076972961E0
1.293833225E1,-1.079043388E1,-1.524826288E0,-7.744370461E0
1.294833225E1,-1.189771271E1,-1.654636860E0,-7.560721397E0
1.295833225E1,-1.300977707E1,-1.996810555E0,-6.148955822E0
1.296833225E1,-1.371386433E1,-1.946561217E0,-4.585844517E0
1.297833225E1,-1.413380527E1,-1.688136339E0,-3.163909674E0
1.298833225E1,-1.424626827E1,-1.512862086E0,-1.500299811E0
1.299833225E1,-1.418106365E1,-8.709874153E-1,2.398804724E-1
1.300833225E1,-1.390708542E1,-3.822534084E-1,-3.996013701E-1
1.301833225E1,-1.368156147E1,4.366901144E-2,-1.267597795E0
1.302833225E1,-1.373958778E1,3.529413342E-1,-1.765304923E0
1.303833225E1,-1.375573921E1,2.602194548E-1,-2.184647083E0
1.304833225E1,-1.189412308E1,-6.053841114E-1,-3.357130051E0
1.305833225E1,-1.103988552E1,-4.169493318E-1,-4.093521118E0
1.306833225E1,-1.005583763E1,-3.170489967E-1,-4.109673023E0
1.307833225E1,-9.026923180E0,-5.419743061E-1,-4.228715897E0
1.308833225E1,-8.037490845E0,-6.000002623E-1,-4.372285366E0
1.309833225E1,-7.164111137E0,-5.102694035E-1,-4.487739086E0
1.310833225E1,-6.543771744E0,-2.452643216E-1,-4.155136585E0
1.311833225E1,-6.605386734E0,4.187439568E-3,-3.660420418E0
1.312833225E1,-6.565905571E0,1.734796464E-1,-3.142374277E0
1.313833225E1,-6.420541286E0,1.423729509E-1,-2.737389088E0
1.314833225E1,-6.182455540E0,-5.563312769E-2,-2.461018085E0
1.315833225E1,-5.831906796E0,-6.161518097E-1,-2.291725874E0
1.316833225E1,-5.767899036E0,-8.452646136E-1,-2.328216314E0
1.317833225E1,-5.714060307E0,-1.012762189E0,-2.337189436E0
1.318833225E1,-5.670989513E0,-9.882357717E-1,-2.341975212E0
1.319833225E1,-5.605186939E0,-9.110672474E-1,-2.357528448E0
1.320833225E1,-5.592026711E0,-7.914260626E-1,-2.386840582E0
1.321833225E1,-5.740979671E0,-3.631108403E-1,-2.656631231E0
1.322833225E1,-5.910870075E0,-1.106680483E-1,-2.647658348E0
1.323833225E1,-6.022734642E0,1.417747438E-1,-2.568096876E0
1.324833225E1,-6.142973900E0,2.171486616E-1,-2.644068956E0
1.325833225E1,-6.345765591E0,2.961117923E-1,-2.848655462E0
1.326833225E1,-6.754938126E0,4.205385745E-1,-3.119044304E0
1.327833225E1,-6.701099873E0,5.491527915E-1,-3.521038532E0
1.328833225E1,-6.470790863E0,7.417750359E-1,-3.891327858E0
1.329833225E1,-6.255436420E0,1.010967612E0,-4.295116425E0
1.330833225E1,-6.159125328E0,1.259821177E0,-4.593023300E0
1.331833225E1,-6.138786316E0,1.474576950E0,-4.881358147E0
1.332833225E1,-6.393621922E0,1.370489120E0,-5.341378212E0
1.333833225E1,-6.628716946E0,1.382453322E0,-5.507081509E0
1.334833225E1,-6.848856449E0,1.302891970E0,-5.672185898E0
1.335833225E1,-7.106683254E0,1.065404296E0,-6.002395630E0
1.336833225E1,-7.429116249E0,5.587241054E-1,-6.401997089E0
1.337833225E1,-8.668000221E0,-7.280163169E-1,-7.147959232E0
1.338833225E1,-9.357132912E0,-1.237089276E0,-7.302296638E0
1.339833225E1,-9.996016502E0,-1.622333765E0,-7.667201996E0
1.340833225E1,-1.066002464E1,-1.328016520E0,-7.999206066E0
1.341833225E1,-1.119123173E1,-8.554341197E-1,-8.152346611E0
1.342833225E1,-1.140180016E1,-4.175475538E-1,-8.283353806E0
1.343833225E1,-1.048534870E1,7.304090858E-1,-8.197810173E0
1.344833225E1,-9.958928108E0,1.325025558E0,-7.962117195E0
1.345833225E1,-1.012164021E1,1.751546144E0,-7.172485828E0
1.346833225E1,-1.186959648E1,1.898704767E0,-6.662814617E0
1.347833225E1,-1.407757378E1,1.127019525E0,-6.281159401E0
1.348833225E1,-1.554138279E1,7.447660565E-1,-2.673381090E0
1.349833225E1,-1.557009697E1,6.000002623E-1,-1.203589797E0
1.350833225E1,-1.550967789E1,4.408775866E-1,-6.281159073E-2
1.351833225E1,-1.529312801E1,8.015955985E-2,4.253242314E-1
1.352833225E1,-1.466202068E1,-5.024927258E-1,2.638086975E-1
1.353833225E1,-1.363609791E1,-1.149751306E0,-2.428714931E-1
1.354833225E1,-1.188156128E1,-5.868397355E-1,-1.878963947E0
1.355833225E1,-1.178345490E1,-8.195417374E-2,-3.123830080E0
1.356833225E1,-1.197547913E1,-3.487538993E-1,-3.792623997E0
1.357833225E1,-1.200598717E1,-5.371887088E-1,-4.415954113E0
1.358833225E1,-1.170568848E1,-6.406782866E-1,-4.836492538E0
1.359833225E1,-1.120439243E1,-5.784648657E-1,-4.787439823E0
1.360833225E1,-9.072985649E0,-7.818548083E-1,-4.350151539E0
1.361833225E1,-8.266005516E0,-6.592226624E-1,-4.275375843E0
1.362833225E1,-7.634898663E0,-4.654040039E-1,-3.965505362E0
1.363833225E1,-7.209574699E0,8.434699476E-2,-3.848257065E0
1.364833225E1,-6.936792850E0,5.892325640E-1,-3.810570002E0
1.365833225E1,-6.586244106E0,1.115055323E0,-3.411566973E0
1.366833225E1,-6.380461693E0,1.280758262E0,-3.056232691E0
1.367833225E1,-6.130411625E0,1.235892892E0,-2.852244616E0
1.368833225E1,-5.871388435E0,1.262812138E0,-2.691925526E0
1.369833225E1,-5.617749214E0,1.217348576E0,-2.673979282E0
1.370833225E1,-5.349154949E0,1.153340459E0,-2.679961443E0
1.371833225E1,-5.206781864E0,6.855437160E-1,-2.791825771E0
1.372833225E1,-5.333003521E0,3.343969584E-1,-2.874378204E0
1.373833225E1,-5.487938881E0,-3.589234129E-2,-2.970689297E0
1.374833225E1,-5.566303730E0,-3.427718580E-1,-2.977269650E0
1.375833225E1,-5.730810165E0,-6.652047038E-1,-3.040679455E0
1.376833225E1,-6.099305153E0,-1.228714466E0,-3.244069338E0
1.377833225E1,-6.041278839E0,-1.406381488E0,-3.495913982E0
1.378833225E1,-5.937789440E0,-1.405783296E0,-3.806382656E0
1.379833225E1,-5.839085579E0,-1.362712502E0,-4.002593994E0
1.380833225E1,-5.696712494E0,-1.342373490E0,-4.132404804E0
1.381833225E1,-5.495715618E0,-1.364507079E0,-4.191029072E0
1.382833225E1,-5.495715618E0,-1.364507079E0,-4.191029072E0
1.383833225E1,-5.370092392E0,-1.220937729E0,-4.564907551E0
1.384833225E1,-5.675177097E0,-1.009172916E0,-4.936393261E0
1.385833225E1,-6.135197163E0,-6.364908218E-1,-5.351547718E0
1.386833225E1,-6.710670948E0,-2.847459018E-1,-5.932405472E0
1.387833225E1,-7.908876896E0,-1.537388563E-1,-6.269793510E0
1.388833225E1,-8.583653450E0,-1.507478207E-1,-6.437291145E0
1.389833225E1,-9.214161873E0,1.489532143E-1,-6.636493683E0
1.390833225E1,-9.772287369E0,5.258227587E-1,-6.702894211E0
1.391833225E1,-1.022393322E1,6.987041831E-1,-6.768098831E0
1.392833225E1,-1.058704376E1,5.365904570E-1,-7.041478634E0
1.393833225E1,-1.139581776E1,-3.780659735E-1,-7.978269100E0
1.394833225E1,-1.145563793E1,-8.536394835E-1,-8.365307808E0
1.395833225E1,-1.087478065E1,-1.575075507E0,-8.382656097E0
1.396833225E1,-9.964909554E0,-2.274976015E0,-8.397012711E0
1.397833225E1,-9.370293617E0,-2.436491728E0,-8.284550667E0
1.398833225E1,-1.190249825E1,-1.688734531E0,-7.731808186E0
1.399833225E1,-1.399980736E1,-1.049850941E0,-6.393621922E0
1.400833225E1,-1.564128304E1,-8.739784956E-1,-4.601397991E0
1.401833225E1,-1.619402504E1,-1.249053478E0,-3.255435228E0
1.402833225E1,-1.553599930E1,-1.527219057E0,-2.255235434E0
1.403833225E1,-1.449153233E1,-9.655039310E-1,-1.674975872E0
1.404833225E1,-1.135394382E1,1.040877849E-1,-1.167099237E0
1.405833225E1,-9.963115692E0,6.897311211E-1,-1.938186288E0
1.406833225E1,-9.088538170E0,1.198205948E0,-2.872583628E0
1.407833225E1,-9.061619759E0,8.225327730E-1,-3.761517286E0
1.408833225E1,-9.355338097E0,-3.379862010E-1,-3.655634880E0
1.409833225E1,-1.040100193E1,-5.156532526E-1,-3.738785267E0
1.410833225E1,-1.075274658E1,-7.435696125E-1,-3.735196114E0
1.411833225E1,-1.072522926E1,-1.025324464E0,-3.623331785E0
1.412833225E1,-1.036570740E1,-1.290927768E0,-3.857230186E0
1.413833225E1,-9.629316330E0,-1.403988719E0,-4.070191383E0
1.414833225E1,-8.733204842E0,-1.290329576E0,-4.295714855E0
1.415833225E1,-7.981858253E0,-3.643072546E-1,-4.231108665E0
1.416833225E1,-7.877171993E0,-2.338984162E-1,-4.104289055E0
1.417833225E1,-7.635497093E0,-2.638086975E-1,-3.704687595E0
1.418833225E1,-7.250252724E0,-3.936193287E-1,-3.352942705E0
1.419833225E1,-6.858428001E0,-7.381857634E-1,-3.095116138E0
1.420833225E1,-6.638288021E0,-1.336989641E0,-2.376671076E0
1.421833225E1,-6.539584160E0,-1.493121386E0,-2.056631088E0
1.422833225E1,-6.355935097E0,-1.668395638E0,-1.999203324E0
1.423833225E1,-6.064010620E0,-1.742573142E0,-2.090728760E0
1.424833225E1,-5.763711452E0,-1.721037745E0,-2.212164640E0
1.425833225E1,-5.627918720E0,-1.537986755E0,-2.391027927E0
1.426833225E1,-5.753541946E0,-4.677968323E-1,-2.536391973E0
1.427833225E1,-5.940182209E0,5.353940725E-1,-2.523829699E0
1.428833225E1,-6.132804394E0,1.092921734E0,-2.675175667E0
1.429833225E1,-6.196812630E0,1.255035520E0,-2.733201742E0
1.430833225E1,-6.194419384E0,1.354935765E0,-2.958127022E0
1.431833225E1,-6.229713917E0,1.305284739E0,-3.477369547E0
1.432833225E1,-6.158527374E0,1.171286702E0,-3.710669756E0
1.433833225E1,-6.141179085E0,1.199402332E0,-4.054039955E0
1.434833225E1,-6.159125328E0,1.327418327E0,-4.431507587E0
1.435833225E1,-6.275177479E0,1.325623751E0,-4.707878590E0
1.436833225E1,-6.423532486E0,1.217946768E0,-4.982454777E0
1.437833225E1,-6.823133945E0,8.303094506E-1,-5.334797859E0
1.438833225E1,-7.122236729E0,5.593222976E-1,-5.402395248E0
1.439833225E1,-7.462017536E0,5.174478889E-1,-5.590830326E0
1.440833225E1,-7.990232944E0,5.162515044E-1,-5.973681927E0
1.441833225E1,-8.644071579E0,2.362912297E-1,-6.339783669E0
1.442833225E1,-9.825528145E0,-8.141579032E-1,-6.573083878E0
1.443833225E1,-1.015813065E1,-9.990034699E-1,-6.550352097E0
1.444833225E1,-1.045543861E1,-9.014959335E-1,-6.568298340E0
1.445833225E1,-1.080299568E1,-6.466603279E-1,-6.730412006E0
1.446833225E1,-1.118106174E1,-3.643072546E-1,-7.135396957E0
1.447833225E1,-1.128933716E1,-2.183450609E-1,-7.517650604E0
1.448833225E1,-1.032383347E1,1.101894855E0,-7.757531166E0
1.449833225E1,-9.576674461E0,1.448255897E0,-7.802994728E0
1.450833225E1,-9.059226990E0,1.381855130E0,-7.705487251E0
1.451833225E1,-9.393623352E0,9.678967595E-1,-7.509275436E0
1.452833225E1,-1.125224876E1,5.294120312E-1,-7.252047062E0
1.453833225E1,-1.415952778E1,4.283152521E-1,-4.095914364E0
1.454833225E1,-1.466022587E1,-1.022931710E-1,-2.118844509E0
1.455833225E1,-1.462493229E1,-4.091726840E-1,-6.334998012E-1
1.456833225E1,-1.409252930E1,-8.093722463E-1,-1.375873089E-1
1.457833225E1,-1.317966747E1,-1.423131227E0,-3.529413342E-1
1.458833225E1,-1.206221867E1,-2.069193363E0,-8.267202377E-1
1.459833225E1,-1.019402313E1,-1.385444283E0,-2.412563324E0
1.460833225E1,-9.620942116E0,-2.667997181E-1,-3.120838881E0
1.461833225E1,-9.952945709E0,1.639083475E-1,-3.617947817E0
1.462833225E1,-1.058644581E1,3.726821244E-1,-3.783052683E0
1.463833225E1,-1.151186943E1,5.162515044E-1,-4.040879250E0
1.464833225E1,-1.273938751E1,3.607180119E-1,-4.108476639E0
1.465833225E1,-1.245942783E1,1.920240223E-1,-3.860819340E0
1.466833225E1,-1.124925709E1,-2.410768867E-1,-3.640679598E0
1.467833225E1,-1.025803089E1,-5.479564071E-1,-3.811168194E0
1.468833225E1,-9.473783493E0,-6.263213158E-1,-3.900899172E0
1.469833225E1,-8.938986778E0,-4.725824594E-1,-3.752544165E0
1.470833225E1,-7.864609718E0,2.751746029E-2,-3.047259569E0
1.471833225E1,-7.289135933E0,3.726821244E-1,-3.029911757E0
1.472833225E1,-6.680162430E0,7.136593461E-1,-2.940778971E0
1.473833225E1,-5.984449387E0,9.547362328E-1,-2.898904562E0
1.474833225E1,-5.282754421E0,1.100698471E0,-2.842075109E0
1.475833225E1,-4.264608383E0,1.206580877E0,-2.634497643E0
1.476833225E1,-4.147958279E0,1.116850019E0,-2.467598438E0
1.477833225E1,-4.222135544E0,9.637092948E-1,-2.313261271E0
1.478833225E1,-4.481756687E0,6.604190469E-1,-2.213959217E0
1.479833225E1,-4.817350388E0,2.548356056E-1,-2.242672920E0
1.480833225E1,-5.340181828E0,-1.573280841E-1,-2.436491728E0
1.481833225E1,-6.649653912E0,-1.386042476E0,-2.829512835E0
1.482833225E1,-6.923034191E0,-1.494915962E0,-3.117847919E0
1.483833225E1,-6.985845566E0,-1.548754454E0,-3.407977581E0
1.484833225E1,-6.853642464E0,-1.524227977E0,-3.628117323E0
1.485833225E1,-6.506084919E0,-1.502692580E0,-3.868596077E0
1.486833225E1,-5.665606022E0,-1.653440475E0,-4.264009953E0
1.487833225E1,-5.478965759E0,-1.791027784E0,-4.487739086E0
1.488833225E1,-5.395216942E0,-1.627717614E0,-4.627718925E0
1.489833225E1,-5.554937840E0,-1.567897081E0,-4.818546772E0
1.490833225E1,-5.996413708E0,-1.419542074E0,-4.950151920E0
1.491833225E1,-6.607779503E0,-1.114457130E0,-5.149354458E0
1.492833225E1,-7.944170952E0,-2.201396823E-1,-5.820540905E0
1.493833225E1,-8.383852005E0,1.680957973E-1,-5.988038540E0
1.494833225E1,-8.636893272E0,5.670989752E-1,-6.132804394E0
1.495833225E1,-8.807980537E0,9.098708034E-1,-6.186643124E0
1.496833225E1,-9.033503532E0,1.060618639E0,-6.119643688E0
1.497833225E1,-1.027238750E1,3.888336942E-2,-6.376274109E0
1.498833225E1,-1.089093208E1,-2.829512656E-1,-6.399005890E0
1.499833225E1,-1.132522964E1,-4.983053207E-1,-6.652047157E0
1.500833225E1,-1.154835987E1,-5.258227587E-1,-7.270591736E0
1.501833225E1,-1.137787151E1,-6.167500615E-1,-7.786244869E0
1.502833225E1,-1.076112175E1,-8.991031051E-1,-8.173882484E0
1.503833225E1,-1.079103184E1,-1.861616015E0,-8.438288689E0
1.504833225E1,-1.256949711E1,-2.059023857E0,-7.953742504E0
1.505833225E1,-1.466561031E1,-1.799402595E0,-7.070790768E0
1.506833225E1,-1.649013710E1,-1.708475351E0,-5.772684574E0
1.507833225E1,-1.714038658E1,-2.102094650E0,-3.834498405E0
1.508833225E1,-1.599601936E1,-3.193820000E0,-1.057029366E0
1.509833225E1,-1.433121300E1,-3.482753277E0,-4.594219327E-1
1.510833225E1,-1.184626675E1,-3.100499868E0,-6.915257573E-1
1.511833225E1,-9.551549911E0,-2.431705952E0,-2.140978098E0
1.512833225E1,-7.975875854E0,-1.887937069E0,-3.189632654E0
1.513833225E1,-7.142575741E0,-1.412961721E0,-3.818346739E0
1.514833225E1,-7.609774113E0,-7.004988194E-1,-4.144967079E0
1.515833225E1,-8.316853523E0,-1.758724600E-1,-3.992424488E0
1.516833225E1,-8.859425545E0,2.267199457E-1,-3.739383698E0
1.517833225E1,-9.585647583E0,2.871387303E-1,-3.521038532E0
1.518833225E1,-1.017787075E1,3.888336942E-2,-3.071786165E0
1.519833225E1,-1.016291618E1,-4.677968323E-1,-2.953939438E0
1.520833225E1,-9.678967476E0,-7.657032609E-1,-3.293122053E0
1.521833225E1,-9.227920532E0,-1.054038405E0,-3.479762316E0
1.522833225E1,-8.967103004E0,-1.323829174E0,-3.474378586E0
1.523833225E1,-8.629714966E0,-1.627119422E0,-3.402593851E0
1.524833225E1,-8.147561073E0,-1.990230203E0,-3.273381472E0
1.525833225E1,-8.147561073E0,-1.990230203E0,-3.273381472E0
1.526833225E1,-6.904489517E0,-2.819941521E0,-3.031706333E0
1.527833225E1,-6.723233223E0,-2.726621389E0,-2.847458839E0
1.528833225E1,-6.538986206E0,-2.443071842E0,-2.836092949E0
1.529833225E1,-6.424130440E0,-1.987239242E0,-2.835494757E0
1.530833225E1,-6.490531445E0,-1.010967612E0,-2.709273338E0
1.531833225E1,-6.605386734E0,-3.756731451E-1,-2.556132793E0
1.532833225E1,-6.697510719E0,2.506481707E-1,-2.550748825E0
1.533833225E1,-6.851249218E0,7.800601721E-1,-2.587239504E0
1.534833225E1,-7.040282249E0,1.084546804E0,-2.574079037E0
1.535833225E1,-7.253243446E0,1.278365493E0,-2.746362209E0
1.536833225E1,-7.613961697E0,1.403988719E0,-2.859423161E0
1.537833225E1,-7.667799950E0,1.320838094E0,-3.259024382E0
1.538833225E1,-7.659425259E0,1.209571838E0,-3.644268990E0
1.538833225E1,-7.659425259E0,1.209571838E0,-3.644268990E0
1.539833225E1,-7.506882668E0,1.119242787E0,-3.959523201E0
1.541833225E1,-7.161119938E0,1.063609719E0,-4.585844517E0
1.542833225E1,-7.213762283E0,1.034297585E0,-4.704289436E0
1.543833225E1,-7.275975227E0,9.708877802E-1,-4.851448059E0
1.544833225E1,-7.304689407E0,8.267202377E-1,-5.041079044E0
1.545833225E1,-7.279564857E0,6.107679605E-1,-5.215754986E0
1.546833225E1,-7.268198967E0,3.858426511E-1,-5.300102234E0
1.547833225E1,-7.945367813E0,8.009973764E-1,-5.094319344E0
1.548833225E1,-8.449654579E0,1.167697430E0,-5.761917114E0
1.549833225E1,-9.109476089E0,8.009973764E-1,-6.508477688E0
1.550833225E1,-9.694520950E0,-6.640082598E-2,-6.626922131E0
1.551833225E1,-9.904491425E0,-6.382854581E-1,-6.683153629E0
1.552833225E1,-9.728020668E0,-3.457628787E-1,-7.130013466E0
1.553833225E1,-9.728020668E0,-3.457628787E-1,-7.130013466E0
1.554833225E1,-9.379266739E0,4.701896608E-1,-7.472187042E0
1.555833225E1,-9.280562401E0,6.197410822E-1,-7.526623726E0
1.556833225E1,-9.445069313E0,3.882354796E-1,-7.462017536E0
1.557833225E1,-1.064267731E1,-1.962114573E-1,-7.130611420E0
1.558833225E1,-1.479003716E1,-1.675574064E0,-5.058426857E0
1.559833225E1,-1.644586945E1,-1.772483349E0,-3.016152859E0
1.560833225E1,-1.746521187E1,-2.482553482E0,-1.835893154E0
1.561833225E1,-1.775952911E1,-2.929413080E0,-1.415952802E0
1.562833225E1,-1.696391678E1,-2.925225735E0,-9.487541914E-1
1.563833225E1,-1.179781246E1,-9.212366939E-1,-2.027917206E-1
1.564833225E1,-9.659825325E0,6.550351977E-1,-1.639681697E0
1.565833225E1,-7.890332699E0,1.076770186E0,-2.478366137E0
1.566833225E1,-6.895516872E0,1.514656782E0,-3.279363394E0
1.567833225E1,-7.097710133E0,1.860419631E0,-3.853042603E0
1.568833225E1,-8.297112465E0,1.584646821E0,-4.272983074E0
1.569833225E1,-1.075454140E1,-6.891329288E-1,-4.846662045E0
1.570833225E1,-1.134556866E1,-1.383649707E0,-4.899902344E0
1.571833225E1,-1.139163017E1,-1.556531072E0,-4.912465096E0
1.572833225E1,-1.086281681E1,-1.398604870E0,-4.959722996E0
1.573833225E1,-1.025204849E1,-1.249053478E0,-4.850251675E0
1.574833225E1,-9.674181938E0,-9.792626500E-1,-4.550550461E0
1.575833225E1,-8.215158463E0,-3.613162339E-1,-4.029513359E0
1.576833225E1,-7.357929707E0,-2.656033039E-1,-3.615555048E0
1.577833225E1,-6.625127792E0,-2.632105052E-1,-3.329014540E0
1.578833225E1,-6.022136211E0,-2.231307179E-1,-3.094517946E0
1.579833225E1,-5.371288776E0,-1.639083475E-1,-2.884547710E0
1.580833225E1,-4.325624943E0,1.292124242E-1,-2.549552441E0
1.581833225E1,-4.055236340E0,3.188436031E-1,-2.605185747E0
1.582833225E1,-3.981058598E0,5.539384484E-1,-2.602194548E0
1.583833225E1,-4.082753658E0,7.537391186E-1,-2.531606436E0
1.584833225E1,-4.299304008E0,8.470591903E-1,-2.631506681E0
1.585833225E1,-4.855037212E0,8.321040869E-1,-2.857030153E0
1.586833225E1,-6.671189308E0,-3.637090325E-1,-3.218346357E0
1.587833225E1,-6.988836765E0,-7.405785918E-1,-3.380460262E0
1.588833225E1,-7.190432072E0,-8.721838593E-1,-3.745365620E0
1.589833225E1,-7.350750923E0,-1.228714466E0,-4.028316975E0
1.590833225E1,-7.433303356E0,-1.239482164E0,-4.261018753E0
1.591833225E1,-7.000801086E0,-1.361516118E0,-4.887340069E0
1.592833225E1,-6.584449768E0,-1.554736495E0,-5.160121918E0
1.593833225E1,-6.269195557E0,-1.667199135E0,-5.371288776E0
1.594833225E1,-6.097510338E0,-1.641476393E0,-5.449055195E0
1.595833225E1,-6.151947021E0,-1.474576950E0,-5.492724419E0
1.596833225E1,-6.427121639E0,-1.219143152E0,-5.550152302E0
1.597833225E1,-7.352545738E0,-7.363911867E-1,-6.082555294E0
1.598833225E1,-7.835297585E0,-4.217349887E-1,-6.425326824E0
1.599833225E1,-8.356932640E0,-5.982056726E-3,-6.711867332E0
1.600833225E1,-8.978468895E0,2.835494876E-1,-7.086942673E0
1.601833225E1,-9.616155624E0,1.854437590E-1,-7.593024254E0
1.602833225E1,-1.047757244E1,-3.469592705E-2,-8.143971443E0
1.603833225E1,-1.054337502E1,-1.890329868E-1,-8.257032394E0
1.604833225E1,-1.042851925E1,-6.466603279E-1,-8.101499557E0
1.605833225E1,-1.012821960E1,-9.308080077E-1,-7.943572998E0
1.606833225E1,-9.690333366E0,-1.362712502E0,-8.167302132E0
1.607833225E1,-9.090931892E0,-1.812563181E0,-8.591429710E0
1.608833225E1,-8.291728973E0,-2.020738840E0,-8.794819832E0
1.609833225E1,-9.494720459E0,-2.365305185E0,-8.212765694E0
1.610833225E1,-1.177986622E1,-2.536990166E0,-6.853044033E0
1.611833225E1,-1.393879032E1,-2.155334949E0,-4.987838745E0
1.612833225E1,-1.539841175E1,-1.916052699E0,-3.159722328E0
1.613833225E1,-1.565623856E1,-1.540977836E0,-1.505683661E0
1.614833225E1,-1.516331673E1,-1.088734269E0,-6.107679605E-1
1.615833225E1,-1.445803261E1,-1.056431174E0,-4.307080805E-2
1.616833225E1,-1.333819199E1,-1.415354609E0,-4.761717021E-1
1.617833225E1,-1.187617683E1,-1.692323804E0,-1.932802439E0
1.618833225E1,-1.047757244E1,-1.725823283E0,-3.214159012E0
1.619833225E1,-8.315058708E0,-1.342971683E0,-3.969094515E0
1.620833225E1,-7.802396297E0,-1.075573802E0,-4.164707661E0
1.621833225E1,-7.721638680E0,-5.006981492E-1,-4.103092670E0
1.622833225E1,-7.986045361E0,2.919243574E-1,-3.854837179E0
1.623833225E1,-8.249256134E0,9.074779749E-1,-3.652643681E0
1.624833225E1,-8.365905762E0,1.551745534E0,-3.800400496E0
1.625833225E1,-8.331210136E0,1.336391449E0,-3.946362734E0
1.626833225E1,-8.408378601E0,8.811569214E-1,-3.966701746E0
1.627833225E1,-8.578269005E0,2.051845491E-1,-3.874577999E0
1.628833225E1,-8.627920151E0,-4.695914388E-1,-3.687937975E0
1.629833225E1,-8.416155815E0,-1.041476011E0,-3.546163082E0
1.630833225E1,-7.252047062E0,-1.762313843E0,-3.457030535E0
1.631833225E1,-6.629913330E0,-1.881356835E0,-3.588635683E0
1.632833225E1,-6.256632805E0,-1.954337835E0,-3.585644722E0
1.633833225E1,-6.088537216E0,-1.951945066E0,-3.462414265E0
1.634833225E1,-6.035895348E0,-1.932204247E0,-3.443870068E0
1.635833225E1,-6.317649841E0,-1.528415442E0,-3.516851187E0
1.636833225E1,-6.552744865E0,-1.028913736E0,-3.667000771E0
1.637833225E1,-6.640681267E0,8.973085135E-2,-3.823132277E0
1.638833225E1,-6.644868374E0,8.835497499E-1,-4.005585194E0
1.639833225E1,-6.629913330E0,1.266401410E0,-4.094717979E0
1.640833225E1,-6.622136593E0,1.453041553E0,-4.138985157E0
1.641833225E1,-6.326622963E0,1.546361685E0,-4.179663181E0
1.642833225E1,-6.175875187E0,1.797009826E0,-4.134797573E0
1.643833225E1,-6.031707764E0,1.664208174E0,-4.225126743E0
1.644833225E1,-5.817550182E0,1.168295622E0,-4.346562386E0
1.645833225E1,-5.710471153E0,8.237292171E-1,-4.630710125E0
1.646833225E1,-5.990431309E0,3.463610709E-1,-5.030909538E0
1.647833225E1,-6.239883423E0,2.572284341E-1,-5.357530117E0
1.648833225E1,-6.412166595E0,1.782652885E-1,-5.627918720E0
1.649833225E1,-6.489933014E0,2.009970993E-1,-5.746961594E0
1.650833225E1,-6.550352097E0,1.435693651E-1,-5.607579708E0
1.651833225E1,-6.710072994E0,2.518445849E-1,-5.721837044E0
1.652833225E1,-7.094120979E0,5.718846321E-1,-6.332605362E0
1.653833225E1,-7.554141045E0,2.327020019E-1,-6.288936138E0
1.654833225E1,-8.067401886E0,-1.028913707E-1,-6.317051888E0
1.655833225E1,-8.777471542E0,-3.439682424E-1,-6.343971252E0
1.656833225E1,-9.685547829E0,-8.745766878E-1,-6.439683914E0
1.657833225E1,-1.117448139E1,-1.154536963E0,-7.339385033E0
1.658833225E1,-1.132164001E1,-1.569093466E0,-7.898109436E0
1.659833225E1,-1.119063377E1,-1.410568953E0,-8.143373489E0
1.660833225E1,-1.076770210E1,-6.981059909E-1,-8.175078392E0
1.661833225E1,-1.037468052E1,1.764706671E-1,-8.255836487E0
1.662833225E1,-1.010907745E1,8.775677085E-1,-8.272585869E0
1.663833225E1,-9.100502968E0,-6.939185411E-2,-8.161319733E0
1.664833225E1,-9.294919968E0,-9.122636318E-1,-7.652844906E0
1.665833225E1,-1.109551907E1,-1.506281853E0,-6.674180508E0
1.666833225E1,-1.382333660E1,-6.897311211E-1,-4.871188641E0
1.667833225E1,-1.555574036E1,-2.847459018E-1,-2.808575630E0
1.668833225E1,-1.613181114E1,4.295116663E-1,-2.069791555E-1
1.669833225E1,-1.557368660E1,1.045065284E0,6.580262184E-1
1.670833225E1,-1.433181095E1,1.688734531E0,7.597211599E-1
1.671833225E1,-1.222971630E1,2.371885538E0,-6.580262445E-3
1.672833225E1,-9.961918831E0,2.810968399E0,-1.473380566E0
1.673833225E1,-8.115856171E0,2.901297569E0,-2.910868645E0
1.674833225E1,-6.557530403E0,2.243271112E0,-4.092923164E0
1.675833225E1,-6.926623344E0,1.503290772E0,-3.775275946E0
1.676833225E1,-7.682157040E0,6.496513486E-1,-3.620938778E0
1.677833225E1,-8.467002869E0,-3.487538993E-1,-3.728017569E0
1.678833225E1,-9.169296265E0,-1.442273855E0,-3.948755503E0
1.679833225E1,-1.021017456E1,-2.773879766E0,-4.285545349E0
1.680833225E1,-1.062951660E1,-2.577668190E0,-4.603790760E0
1.681833225E1,-1.083290672E1,-1.852044702E0,-4.627120972E0
1.682833225E1,-1.072522926E1,-9.607182741E-1,-4.372285366E0
1.683833225E1,-1.031067276E1,-1.423729509E-1,-4.076173306E0
1.684833225E1,-9.576076508E0,5.593222976E-1,-3.904488325E0
1.685833225E1,-7.523034573E0,1.387837172E0,-3.780061483E0
1.686833225E1,-6.444469452E0,1.584646821E0,-3.740580082E0
1.687833225E1,-5.671587944E0,1.750349760E0,-3.722633839E0
1.688833225E1,-5.251647472E0,1.912463546E0,-3.554538012E0
1.689833225E1,-5.115854740E0,1.904686809E0,-3.278765202E0
1.690833225E1,-5.321039200E0,1.396211982E0,-3.159124136E0
1.691833225E1,-5.651248932E0,9.816554785E-1,-3.139383316E0
1.692833225E1,-5.932405472E0,3.517449200E-1,-3.156731367E0
1.693833225E1,-6.210571289E0,-6.514459848E-1,-3.371487141E0
1.694833225E1,-6.384050846E0,-9.445667267E-1,-3.296711445E0
1.695833225E1,-6.214758396E0,-1.187438250E0,-3.376870871E0
1.696833225E1,-5.774479389E0,-1.849053741E0,-3.522234917E0
1.697833225E1,-5.641079426E0,-1.679761529E0,-3.348157167E0
1.698833225E1,-5.471786976E0,-1.472184181E0,-3.451048374E0
1.699833225E1,-5.349753380E0,-1.332802176E0,-3.634099483E0
1.700833225E1,-5.338985443E0,-1.185643673E0,-3.997808456E0
1.701833225E1,-5.867799282E0,-7.136593461E-1,-4.636692047E0
1.702833225E1,-6.378068924E0,-5.138586760E-1,-4.887938499E0
1.703833225E1,-6.826124668E0,-2.697907388E-1,-5.192425251E0
1.704833225E1,-7.165307522E0,-1.196411322E-3,-5.478965759E0
1.705833225E1,-7.441080093E0,2.303091735E-1,-5.736194134E0
1.706833225E1,-7.657630444E0,3.236292601E-1,-5.812166214E0
1.707833225E1,-8.611170769E0,2.315055877E-1,-6.397211552E0
1.708833225E1,-9.408578873E0,3.810569942E-1,-6.885347366E0
1.709833225E1,-1.015334511E1,5.060819983E-1,-7.396812916E0
1.710833225E1,-1.065224838E1,5.437689424E-1,-7.666005611E0
1.711833225E1,-1.093938732E1,4.163511395E-1,-7.882555962E0
1.712833225E1,-1.088674450E1,-7.082754970E-1,-8.088936806E0
1.713833225E1,-1.031246758E1,-1.229312658E0,-8.011768341E0
1.714833225E1,-9.525228500E0,-1.599601984E0,-8.066205025E0
1.715833225E1,-8.953942299E0,-1.896311998E0,-8.133802414E0
1.716833225E1,-9.065208435E0,-1.054038405E0,-7.805985451E0
1.717833225E1,-1.054217815E1,2.638086975E-1,-7.163512707E0
1.718833225E1,-1.481516171E1,1.299302697E0,-3.531208038E0
1.719833225E1,-1.592543125E1,1.179661512E0,-1.348953724E0
1.720833225E1,-1.646022606E1,5.617151260E-1,2.566302419E-1
1.721833225E1,-1.640878105E1,-2.919243574E-1,1.140778184E0
1.722833225E1,-1.584826279E1,-1.076770186E0,8.955138922E-1
1.723833225E1,-1.429472256E1,-2.982653379E0,-1.627119422E0
1.724833225E1,-1.361635685E1,-3.510270834E0,-2.604587555E0
1.725833225E1,-1.300080395E1,-3.223132133E0,-3.192025423E0
1.726833225E1,-1.231167030E1,-2.499901533E0,-3.468994617E0
1.727833225E1,-1.158425236E1,-1.790429592E0,-3.869792461E0
1.728833225E1,-1.080838013E1,-1.099501967E0,-4.108476639E0
1.729833225E1,-8.404789925E0,3.062812984E-1,-4.334000111E0
1.730833225E1,-7.271788120E0,1.119840980E0,-4.613960266E0
1.731833225E1,-6.550352097E0,1.475175142E0,-4.935794830E0
1.732833225E1,-6.314659119E0,2.262413740E0,-4.995615482E0
1.733833225E1,-6.522834301E0,2.213361025E0,-4.694119930E0
1.734833225E1,-6.867401123E0,1.380060434E0,-3.645465374E0
1.735833225E1,-6.811169624E0,7.549355626E-1,-3.202194929E0
1.736833225E1,-6.635297298E0,5.862415582E-2,-2.892922640E0
1.737833225E1,-6.389434814E0,-6.711867452E-1,-2.879163742E0
1.738833225E1,-6.110671043E0,-1.319043517E0,-2.918645382E0
1.739833225E1,-5.848058701E0,-1.795215130E0,-2.912065268E0
1.740833225E1,-5.328217983E0,-2.173281193E0,-2.940778971E0
1.741833225E1,-5.181657314E0,-2.023729801E0,-2.933002472E0
1.742833225E1,-5.146363258E0,-1.726421595E0,-2.964707375E0
1.743833225E1,-5.275575638E0,-1.258624673E0,-3.010170937E0
1.744833225E1,-5.505286694E0,-6.436693072E-1,-2.932404041E0
1.745833225E1,-5.627320766E0,9.385846853E-1,-3.168097258E0
1.746833225E1,-5.800201893E0,1.323829174E0,-3.470191002E0
1.747833225E1,-6.066403389E0,1.497308731E0,-3.789632797E0
1.748833225E1,-6.236892223E0,1.624128342E0,-4.147359848E0
1.749833225E1,-6.320042610E0,1.674975872E0,-4.428516388E0
1.750833225E1,-6.305685997E0,1.598405480E0,-4.561318398E0
1.751833225E1,-6.220142365E0,1.464407444E0,-4.899902344E0
1.752833225E1,-6.307480335E0,1.390828133E0,-5.256433010E0
1.753833225E1,-6.296114445E0,1.001994491E0,-5.635097504E0
1.754833225E1,-6.437889099E0,6.843472719E-1,-5.889334679E0
1.755833225E1,-6.600003242E0,3.900300860E-1,-6.339185238E0
1.756833225E1,-6.918846607E0,-6.580262445E-3,-6.744170666E0
1.757833225E1,-7.272984505E0,-4.552344978E-1,-6.800402164E0
1.758833225E1,-7.826922894E0,-1.092323542E0,-6.916453838E0
1.759833225E1,-8.611170769E0,-1.612164259E0,-7.065407276E0
1.760833225E1,-9.763314247E0,-1.077966571E0,-7.038487911E0
1.761833225E1,-1.088076305E1,-6.478567123E-1,-6.954140663E0
1.762833225E1,-1.225065327E1,-5.712863803E-1,-7.294519901E0
1.763833225E1,-1.194975662E1,-6.167500615E-1,-7.458428383E0
1.764833225E1,-1.096391296E1,-2.769692242E-1,-7.442874908E0
1.765833225E1,-9.843474388E0,1.651047617E-1,-7.243073940E0
1.766833225E1,-8.852845192E0,5.575276613E-1,-7.232904434E0
1.767833225E1,-7.712665558E0,5.814558864E-1,-7.545167923E0
1.768833225E1,-8.039883614E0,2.189432681E-1,-7.759923935E0
1.769833225E1,-9.911071777E0,5.030909777E-1,-7.679165840E0
1.770833225E1,-1.175294685E1,3.397808075E-1,-6.508477688E0
1.771833225E1,-1.268973637E1,2.590230405E-1,-4.828117847E0
1.772833225E1,-1.307438278E1,2.488535494E-1,-3.552145243E0
1.773833225E1,-1.326281738E1,7.824530005E-1,-2.739782035E-1
1.774833225E1,-1.317547989E1,8.602197170E-1,4.905286431E-2
1.775833225E1,-1.287637711E1,7.130611539E-1,-6.047859192E-1
1.776833225E1,-1.247498131E1,6.909275651E-1,-1.499103427E0
1.777833225E1,-1.221894836E1,1.050449133E0,-2.123031855E0
1.778833225E1,-1.117208862E1,1.957328916E0,-3.138186932E0
1.779833225E1,-1.126481056E1,2.169692039E0,-4.021138668E0
1.780833225E1,-1.129591751E1,2.225923300E0,-4.389034748E0
1.781833225E1,-1.107757282E1,1.763510346E0,-4.553541660E0
1.782833225E1,-1.062413216E1,8.584251404E-1,-4.582853794E0
1.783833225E1,-9.857233047E0,-3.014956415E-1,-4.478167534E0
1.784833225E1,-9.857233047E0,-3.014956415E-1,-4.478167534E0
1.785833225E1,-8.183453560E0,-1.395613790E0,-4.446462631E0
1.786833225E1,-7.875975609E0,-1.521835208E0,-4.399204254E0
1.787833225E1,-7.837690353E0,-9.278169870E-1,-4.217947960E0
1.788833225E1,-7.670791149E0,-1.686939895E-1,-3.800400496E0
1.789833225E1,-6.958328247E0,1.126421213E0,-3.223730326E0
1.790833225E1,-6.439683914E0,1.428515077E0,-3.095116138E0
1.791833225E1,-5.844469070E0,1.639681697E0,-3.181855917E0
1.792833225E1,-5.329414368E0,1.778465390E0,-3.190230846E0
1.793833225E1,-4.998606682E0,1.743769526E0,-3.096910715E0
1.794833225E1,-4.776672363E0,1.569093466E0,-3.005983353E0
1.795833225E1,-4.897509575E0,7.310073376E-1,-2.927618504E0
1.796833225E1,-5.091926575E0,7.776673883E-2,-2.968894720E0
1.797833225E1,-5.459224701E0,-1.079162955E0,-3.129812002E0
1.798833225E1,-5.935994625E0,-1.734796405E0,-3.169293642E0
1.799833225E1,-6.398407936E0,-1.945364833E0,-3.298506021E0
1.800833225E1,-6.685546398E0,-1.938186288E0,-3.330210924E0
1.801833225E1,-6.634698868E0,-1.895713687E0,-3.602992773E0
1.802833225E1,-6.504888535E0,-2.018944025E0,-3.631108284E0
1.803833225E1,-6.224329948E0,-1.877169371E0,-3.662813187E0
1.804833225E1,-5.921039581E0,-1.630708575E0,-3.747160196E0
1.805833225E1,-5.770890236E0,-1.447657704E0,-3.921238184E0
1.806833225E1,-6.312864304E0,-8.147560954E-1,-4.953142643E0
1.807833225E1,-6.903293133E0,-3.816552162E-1,-5.496912003E0
1.808833225E1,-7.454838753E0,1.292124242E-1,-5.802595139E0
1.809833225E1,-7.958528042E0,7.124629617E-1,-6.004190445E0
1.810833225E1,-8.274978638E0,1.130010486E0,-6.272784710E0
1.811833225E1,-8.414361000E0,1.243669510E0,-6.224927902E0
1.812833225E1,-8.965906143E0,3.768695518E-2,-6.074180126E0
1.813833225E1,-9.304491043E0,-1.621137410E-1,-6.266204357E0
1.814833225E1,-9.741181374E0,-1.531406492E-1,-6.549753666E0
1.815833225E1,-1.017846966E1,-1.004985496E-1,-6.890730858E0
1.816833225E1,-1.051705360E1,-4.061816335E-1,-7.316055298E0
1.817833225E1,-1.084905815E1,-1.487737536E0,-7.815557003E0
1.818833225E1,-1.046321487E1,-1.866999865E0,-7.920242786E0
1.819833225E1,-9.580862045E0,-1.734198213E0,-8.017151833E0
1.820833225E1,-8.662615776E0,-1.458425403E0,-8.315656662E0
1.821833225E1,-8.386843681E0,-1.307079315E0,-8.289336205E0
1.822833225E1,-8.991629601E0,-2.207378894E-1,-7.783852100E0
1.823833225E1,-1.418106365E1,7.154539824E-1,-5.824130535E0
1.824833225E1,-1.594696617E1,6.329016089E-1,-3.705285788E0
1.825833225E1,-1.698186302E1,6.789634228E-1,-2.325823545E0
1.826833225E1,-1.729292870E1,4.211367965E-1,-1.043868899E0
1.827833225E1,-1.708894157E1,-5.682953820E-2,4.085744619E-1
1.828833225E1,-1.708894157E1,-5.682953820E-2,4.085744619E-1
1.829833225E1,-1.279322624E1,-2.023131609E0,-6.699903607E-1
1.830833225E1,-1.080838013E1,-2.520240545E0,-2.228316069E0
1.831833225E1,-9.464211464E0,-2.711068153E0,-3.288934708E0
1.832833225E1,-8.499305725E0,-2.637488842E0,-4.143770695E0
1.833833225E1,-7.989036560E0,-2.361117840E0,-4.740181446E0
1.834833225E1,-7.756334782E0,-1.292124271E0,-4.840680122E0
1.835833225E1,-7.517052174E0,-7.393822074E-1,-4.693521500E0
1.836833225E1,-7.406384468E0,-2.979064286E-1,-4.659423828E0
1.837833225E1,-7.274778843E0,5.802594870E-2,-4.472185612E0
1.838833225E1,-7.113263607E0,2.081755698E-1,-4.326821327E0
1.839833225E1,-7.697112083E0,4.378865361E-1,-4.076771736E0
1.840833225E1,-7.983652592E0,1.680957973E-1,-3.615555048E0
1.841833225E1,-7.951349735E0,-2.691925503E-2,-3.318246841E0
1.842833225E1,-7.642675400E0,-2.147558331E-1,-3.171088219E0
1.843833225E1,-7.214958668E0,-4.935196638E-1,-3.266801119E0
1.844833225E1,-6.729813576E0,-8.380861282E-1,-3.357728481E0
1.845833225E1,-5.969494343E0,-1.299900889E0,-3.329612732E0
1.846833225E1,-5.767899036E0,-1.302293777E0,-3.178266764E0
1.847833225E1,-5.725426197E0,-1.191625714E0,-3.041277647E0
1.848833225E1,-5.751149178E0,-9.523434043E-1,-2.914458036E0
1.849833225E1,-5.802595139E0,-5.318048596E-1,-2.883949518E0
1.850833225E1,-6.145366669E0,4.079762697E-1,-2.750549555E0
1.851833225E1,-6.273981094E0,8.668000102E-1,-2.662613392E0
1.852833225E1,-6.393023968E0,1.151545882E0,-2.921636343E0
1.853833225E1,-6.595217228E0,1.244866014E0,-3.121437073E0
1.854833225E1,-6.795616150E0,1.123430252E0,-3.219542980E0
1.855833225E1,-6.890730858E0,9.828519225E-1,-3.379862070E0
1.856833225E1,-6.894918442E0,6.903293133E-1,-3.821337700E0
1.857833225E1,-6.808178425E0,6.095715761E-1,-3.840480328E0
1.858833225E1,-6.589235306E0,5.533402562E-1,-4.113262177E0
1.859833225E1,-6.458228111E0,5.820540786E-1,-4.596014023E0
1.860833225E1,-6.396613121E0,4.576273263E-1,-4.905286312E0
1.861833225E1,-6.434299946E0,2.171486616E-1,-5.175076962E0
1.862833225E1,-6.706483841E0,7.537391037E-2,-5.348556995E0
1.863833225E1,-6.970890522E0,3.828516230E-2,-5.723631859E0
1.864833225E1,-7.286743164E0,-1.429711580E-1,-6.149554253E0
1.865833225E1,-7.757531166E0,-4.731806815E-1,-6.277570248E0
1.866833225E1,-8.448458672E0,-7.716853023E-1,-6.409773827E0
1.867833225E1,-1.023230743E1,-6.711867452E-1,-7.286743164E0
1.868833225E1,-1.115773201E1,-5.180460811E-1,-7.502097130E0
1.869833225E1,-1.182413292E1,-2.614158690E-1,-7.414160728E0
1.870833225E1,-1.202513027E1,2.488535494E-1,-7.473981380E0
1.871833225E1,-1.149033451E1,7.657032609E-1,-7.552944660E0
1.872833225E1,-9.753743172E0,1.533201098E0,-7.616354465E0
1.873833225E1,-9.688538551E0,1.444068432E0,-7.253841877E0
1.874833225E1,-1.158365440E1,1.182054400E0,-7.259823799E0
1.875833225E1,-1.382213974E1,4.402793646E-1,-6.239284992E0
1.876833225E1,-1.482114315E1,2.069791555E-1,-4.013959885E0
1.877833225E1,-1.542114353E1,-3.960121572E-1,-1.983649969E0
1.878833225E1,-1.572263908E1,-7.381857634E-1,-4.785645287E-3
1.879833225E1,-1.543609905E1,-1.007378340E0,3.774677813E-1
1.880833225E1,-1.453520107E1,-1.065404296E0,6.203392744E-1
1.881833225E1,-1.288475132E1,1.076770201E-1,3.678964674E-1
1.882833225E1,-1.168534946E1,1.321436286E0,-1.069591761E0
1.883833225E1,-1.150648594E1,1.374676585E0,-3.293720484E0
1.884833225E1,-1.165962696E1,1.080359459E0,-3.834498405E0
1.885833225E1,-1.148495007E1,6.071787477E-1,-4.174877167E0
1.886833225E1,-1.115115166E1,1.220339537E-1,-4.316651821E0
1.887833225E1,-1.074377346E1,-3.230310678E-1,-4.024727821E0
1.888833225E1,-1.006301594E1,-7.698906660E-1,-3.571886063E0
1.889833225E1,-8.042277336E0,-1.109671474E0,-3.462414265E0
1.890833225E1,-7.335197926E0,-6.771687865E-1,-3.698705673E0
1.891833225E1,-6.815357208E0,-1.226321608E-1,-3.758526087E0
1.892833225E1,-6.475576401E0,3.834498227E-1,-3.735794306E0
1.893833225E1,-6.245266914E0,8.261220455E-1,-3.616751432E0
1.894833225E1,-5.915655613E0,1.161117196E0,-3.091526747E0
1.895833225E1,-5.806184292E0,1.301097274E0,-2.959921598E0
1.896833225E1,-5.682355404E0,1.335793257E0,-2.894119024E0
1.897833225E1,-5.558526993E0,1.408774376E0,-2.876172781E0
1.898833225E1,-5.418546677E0,1.314856052E0,-2.843271494E0
1.899833225E1,-5.346762180E0,1.329811215E0,-2.786442041E0
1.900833225E1,-5.480162144E0,9.032905698E-1,-2.529213428E0
1.901833225E1,-5.666802406E0,4.133601189E-1,-2.581855536E0
1.902833225E1,-5.998806477E0,-3.457628787E-1,-2.540579557E0
1.903833225E1,-6.373282909E0,-1.177268744E0,-2.622533560E0
1.904833225E1,-6.708278179E0,-1.702493310E0,-2.712264538E0
1.905833225E1,-7.067800045E0,-2.136790514E0,-2.782852650E0
1.906833225E1,-6.989434719E0,-1.945364833E0,-2.980260611E0
1.907833225E1,-6.824928284E0,-1.767099500E0,-3.149552822E0
1.908833225E1,-6.589235306E0,-1.506880045E0,-3.363112211E0
1.909833225E1,-6.339783669E0,-1.227517962E0,-3.609572887E0
1.910833225E1,-6.119045734E0,-1.054038405E0,-3.941577196E0
1.911833225E1,-6.249454498E0,-9.523434043E-1,-4.866403103E0
1.912833225E1,-6.625725746E0,-8.524430394E-1,-5.404190063E0
1.913833225E1,-7.083353043E0,-6.897311211E-1,-5.726622581E0
1.914833225E1,-7.396214962E0,-7.226324677E-1,-6.153741837E0
1.915833225E1,-7.620542049E0,-8.111668825E-1,-6.299703598E0
1.916833225E1,-7.959126472E0,-5.569294691E-1,-6.514459610E0
1.917833225E1,-8.420941353E0,-5.288137794E-1,-7.041478634E0
1.918833225E1,-8.806185722E0,2.566302419E-1,-7.054639339E0
1.919833225E1,-9.132207870E0,1.019940615E0,-6.738786697E0
1.920833225E1,-9.549755096E0,1.532004714E0,-7.002595425E0
1.921833225E1,-1.041296577E1,1.387837172E0,-7.792825222E0
1.922833225E1,-1.237866974E1,-3.457628787E-1,-8.454441071E0
1.923833225E1,-1.237268734E1,-1.283151150E0,-8.175676346E0
1.924833225E1,-1.187617683E1,-2.353341103E0,-7.554739475E0
1.925833225E1,-1.167936707E1,-2.810370207E0,-7.352545738E0
1.926833225E1,-1.241097260E1,-2.166102648E0,-7.147959232E0
1.927833225E1,-1.502513123E1,-4.283152521E-1,-4.789832592E0
1.928833225E1,-1.575135326E1,-1.029511929E0,-3.135195971E0
1.929833225E1,-1.579621887E1,-1.667797327E0,-2.038086653E0
1.930833225E1,-1.533500195E1,-1.537388563E0,-1.364507079E0
1.931833225E1,-1.438505173E1,-1.163509965E0,-9.487541914E-1
1.932833225E1,-1.308156109E1,-9.062815905E-1,-6.963114142E-1
1.933833225E1,-1.074018478E1,2.476571500E-1,-1.510469317E0
1.934833225E1,-1.052483082E1,6.879364848E-1,-2.416750908E0
1.935833225E1,-1.068933678E1,2.452643216E-2,-3.011367321E0
1.936833225E1,-1.097468090E1,1.447657645E-1,-3.434896946E0
1.937833225E1,-1.096690464E1,2.446661144E-1,-3.631706476E0
1.938833225E1,-1.000678444E1,-1.956132501E-1,-3.610171080E0
1.939833225E1,-9.397212982E0,-2.799602449E-1,-3.274577856E0
1.940833225E1,-8.673981667E0,-2.338984162E-1,-2.968894720E0
1.941833225E1,-7.952546120E0,-1.932204217E-1,-2.906681299E0
1.942833225E1,-7.440482140E0,-3.128615618E-1,-3.052045345E0
1.943833225E1,-7.161718369E0,-5.449653864E-1,-3.156731367E0
1.944833225E1,-7.042675018E0,-7.489534616E-1,-2.793620348E0
1.945833225E1,-6.931408882E0,-7.663014531E-1,-2.569891453E0
1.946833225E1,-6.796812534E0,-8.027920127E-1,-2.427518606E0
1.947833225E1,-6.641279221E0,-9.972088337E-1,-2.359921217E0
1.948833225E1,-6.430710793E0,-1.081555843E0,-2.413161755E0
1.949833225E1,-5.836094379E0,-1.291526079E0,-2.515454769E0
1.950833225E1,-5.578866005E0,-1.284347534E0,-2.569293261E0
1.951833225E1,-5.407779217E0,-1.153938770E0,-2.599801779E0
1.952833225E1,-5.353940487E0,-8.662018180E-1,-2.678765059E0
1.953833225E1,-5.401198864E0,-5.132604837E-1,-2.819343328E0
1.954833225E1,-5.559125423E0,-6.999006122E-2,-3.031706333E0
1.955833225E1,-5.767899036E0,1.080359459E0,-3.287738323E0
1.956833225E1,-6.043671608E0,1.283151150E0,-3.497110367E0
1.957833225E1,-6.341578007E0,1.289133191E0,-3.767499208E0
1.958833225E1,-6.572485447E0,1.329213023E0,-3.966701746E0
1.959833225E1,-6.601797581E0,1.304686546E0,-4.128217220E0
1.960833225E1,-6.454041004E0,1.171286702E0,-4.476373196E0
1.961833225E1,-6.334399700E0,1.119242787E0,-4.605585575E0
1.962833225E1,-6.202196121E0,1.119840980E0,-4.820939541E0
1.963833225E1,-6.093921185E0,1.091127157E0,-5.202594757E0
1.964833225E1,-6.033502102E0,1.004387259E0,-5.693721294E0
1.965833225E1,-6.077769279E0,9.218349457E-1,-6.088537216E0
1.966833225E1,-6.585047722E0,7.052844763E-1,-6.565307140E0
1.967833225E1,-7.019345284E0,4.031906128E-1,-6.956533432E0
1.968833225E1,-7.663014412E0,-1.076770201E-2,-7.426125050E0
1.969833225E1,-8.514261246E0,-6.131607890E-1,-7.650452137E0
1.970833225E1,-9.534799576E0,-8.476574421E-1,-7.604390144E0
1.971833225E1,-1.127139091E1,-3.110669367E-2,-7.352545738E0
1.972833225E1,-1.182951736E1,2.458625287E-1,-7.560721397E0
1.973833225E1,-1.206700420E1,2.368894368E-1,-8.117650986E0
1.974833225E1,-1.178824043E1,4.109672904E-1,-8.411369324E0
1.975833225E1,-1.094477081E1,7.304090858E-1,-8.390432358E0
1.976833225E1,-1.025743294E1,1.039681435E0,-8.015357971E0
1.977833225E1,-1.200957680E1,1.249651670E0,-7.262216568E0
1.978833225E1,-1.358405399E1,4.618147612E-1,-6.345765591E0
1.979833225E1,-1.431565952E1,-3.828516230E-2,-4.630111694E0
1.980833225E1,-1.428215981E1,1.375873089E-1,-3.396611691E0
1.981833225E1,-1.397288799E1,6.203392744E-1,-2.801397085E0
1.982833225E1,-1.238883877E1,7.591229677E-1,-1.347757339E0
1.983833225E1,-1.171346474E1,4.821537733E-1,-1.635494232E0
1.984833225E1,-1.128993511E1,2.883351147E-1,-2.266003132E0
1.985833225E1,-1.118106174E1,1.256231815E-1,-2.775674343E0
1.986833225E1,-1.116191959E1,4.217349887E-1,-3.102294445E0
1.987833225E1,-1.127139091E1,5.766702294E-1,-3.651447296E0
1.988833225E1,-1.152443218E1,6.999006122E-2,-4.494917393E0
1.989833225E1,-1.132522964E1,-3.541377485E-1,-4.626522541E0
1.990833225E1,-1.089930725E1,-8.524430394E-1,-4.601397991E0
1.991833225E1,-1.018265629E1,-1.305284739E0,-4.539782524E0
1.992833225E1,-9.296115875E0,-1.588834286E0,-4.609772682E0
1.993833225E1,-7.963912010E0,-1.136590719E0,-4.974080086E0
1.994833225E1,-7.756932735E0,-6.263213158E-1,-4.636094093E0
1.995833225E1,-7.569096088E0,3.708875179E-2,-4.122235298E0
1.996833225E1,-7.329215527E0,6.000002623E-1,-3.860819340E0
1.997833225E1,-7.051050186E0,1.076770186E0,-3.728017569E0
1.998833225E1,-6.723831654E0,1.395613790E0,-3.555734396E0
1.999833225E1,-5.906084538E0,1.509871125E0,-3.275774240E0
2.000833225E1,-5.482554913E0,1.260419369E0,-3.195016384E0
2.001833225E1,-5.212764263E0,1.028315544E0,-3.209373474E0
2.002833225E1,-5.048257351E0,8.865407705E-1,-3.190230846E0
2.003833225E1,-4.950151920E0,6.723831892E-1,-3.084348440E0
2.004833225E1,-5.048257351E0,-3.170489892E-2,-2.968296528E0
2.005833225E1,-5.163113117E0,-5.353940725E-1,-3.030509949E0
2.006833225E1,-5.383851051E0,-9.637092948E-1,-3.126222849E0
2.007833225E1,-5.772684574E0,-1.350150228E0,-3.173480988E0
2.008833225E1,-6.037091732E0,-1.591825247E0,-3.055634499E0
2.009833225E1,-6.293123722E0,-1.876571178E0,-3.199802160E0
2.010833225E1,-6.458826542E0,-1.658824325E0,-3.333800077E0
2.011833225E1,-6.410371780E0,-1.352542996E0,-3.565305710E0
2.012833225E1,-6.269793510E0,-1.136590719E0,-3.748954773E0
2.013833225E1,-6.025127411E0,-9.535398483E-1,-4.152743816E0
2.014833225E1,-5.752345562E0,-7.938188910E-1,-4.594219685E0
2.015833225E1,-5.657829285E0,-5.796613097E-1,-5.330610752E0
2.016833225E1,-5.821737289E0,-5.288137794E-1,-5.487340450E0
2.017833225E1,-6.010172367E0,-4.546363056E-1,-5.778068542E0
2.018833225E1,-6.303891182E0,-4.295116663E-1,-6.071787357E0
2.019833225E1,-6.708278179E0,-2.763710022E-1,-6.304489613E0
2.020833225E1,-7.191030025E0,7.238288224E-2,-6.590431690E0
2.021833225E1,-8.522636414E0,1.005583763E0,-7.252645493E0
2.022833225E1,-9.437891006E0,1.082154036E0,-7.448258877E0
2.023833225E1,-1.047398281E1,7.938188910E-1,-7.764111042E0
2.024833225E1,-1.131984615E1,1.920240223E-1,-7.902296543E0
2.025833225E1,-1.175414276E1,-4.683950245E-1,-8.157132149E0
2.026833225E1,-1.170628643E1,-1.200598717E0,-8.480761528E0
2.027833225E1,-9.806385040E0,-2.890529871E0,-8.469395638E0
2.028833225E1,-8.778069496E0,-3.058625460E0,-8.612366676E0
2.029833225E1,-8.737391472E0,-2.761317253E0,-8.529216766E0
2.030833225E1,-1.027059269E1,-2.277369022E0,-8.376075745E0
2.031833225E1,-1.225244808E1,-1.581655741E0,-7.634898663E0
2.032833225E1,-1.464527130E1,-7.387840152E-1,-4.083950043E0
2.033833225E1,-1.488993740E1,-8.087740541E-1,-2.622533560E0
2.034833225E1,-1.466082478E1,-7.519445419E-1,-1.661217093E0
