"time","gyro_x","gyro_y","gyro_z"
1.000372842E1,-3.868304193E-1,-1.087340117E-1,2.895501256E-1
1.001372842E1,-4.973970354E-1,-1.237002090E-1,2.582432926E-1
1.002372842E1,-6.105598211E-1,-1.386664063E-1,2.099849284E-1
1.003372842E1,-7.067710757E-1,-1.585195363E-1,1.456913650E-1
1.004372842E1,-7.728972435E-1,-2.255619913E-1,1.053742506E-2
1.005372842E1,-7.670940161E-1,-2.293798923E-1,-4.077525437E-2
1.006372842E1,-7.611380816E-1,-2.306016237E-1,-7.987063378E-2
1.007372842E1,-7.273877859E-1,-2.173153162E-1,-1.055269688E-1
1.008372842E1,-6.630942225E-1,-1.785253733E-1,-1.217148975E-1
1.009372842E1,-5.928447247E-1,-1.383609772E-1,-1.415680200E-1
1.010372842E1,-4.607451260E-1,-1.259909570E-1,-1.725694388E-1
1.011372842E1,-3.842342496E-1,-1.511891484E-1,-1.631010175E-1
1.012372842E1,-3.136793077E-1,-1.713477075E-1,-1.449277848E-1
1.013372842E1,-2.625193298E-1,-1.918116808E-1,-1.269072592E-1
1.014372842E1,-2.345722616E-1,-2.037235647E-1,-1.073595658E-1
1.015372842E1,-2.415972054E-1,-1.430951804E-1,-4.764748737E-2
1.016372842E1,-2.342668176E-1,-4.627304152E-2,-2.351831272E-2
1.017372842E1,-2.125810981E-1,5.543602258E-2,-2.611448988E-2
1.018372842E1,-2.005165219E-1,8.811730891E-2,-4.948008433E-2
1.019372842E1,-2.273945808E-1,3.344487399E-2,-8.216137439E-2
1.020372842E1,-2.831360400E-1,-6.475171447E-2,-9.285151958E-2
1.021372842E1,-3.094032407E-1,-3.877467215E-1,-4.214970022E-2
1.022372842E1,-2.567161322E-1,-5.688682795E-1,7.941247895E-3
1.023372842E1,-2.066251636E-1,-6.230825782E-1,5.299255997E-2
1.024372842E1,-2.017382532E-1,-4.983133376E-1,9.544769675E-2
1.025372842E1,-2.527455091E-1,-1.994474977E-1,1.391245574E-1
1.026372842E1,-4.149302244E-1,3.539963961E-1,8.032877743E-2
1.027372842E1,-4.726569951E-1,4.273002446E-1,-4.535674304E-2
1.028372842E1,-5.487096906E-1,4.338670373E-1,-1.963931769E-1
1.029372842E1,-6.415612102E-1,4.538728893E-1,-3.156646192E-1
1.030372842E1,-7.255551815E-1,3.433062732E-1,-3.846924007E-1
1.031372842E1,-7.739662528E-1,1.484402567E-1,-3.878994286E-1
1.032372842E1,-6.641632318E-1,2.504547499E-2,-4.642575979E-2
1.033372842E1,-4.720461071E-1,-9.926560335E-3,2.470949888E-1
1.034372842E1,-2.231185287E-1,1.832595654E-2,5.242751241E-1
1.035372842E1,7.177666761E-3,6.673702598E-2,7.162395120E-1
1.036372842E1,1.314887404E-1,5.497787148E-3,7.915286422E-1
1.037372842E1,4.489859566E-2,-1.220203340E-1,6.907358766E-1
1.038372842E1,4.123340361E-3,2.490803003E-1,6.207917929E-1
1.039372842E1,3.130684420E-2,6.543893814E-1,5.491678715E-1
1.040372842E1,9.132435173E-2,8.526151776E-1,4.485278130E-1
1.041372842E1,1.186605766E-1,7.325801253E-1,3.071125150E-1
1.042372842E1,9.025534242E-2,4.040873647E-1,1.369865239E-1
1.043372842E1,1.069014147E-2,-2.102903575E-1,-1.021672115E-1
1.044372842E1,7.971791178E-2,-3.141374588E-1,-1.327104717E-1
1.045372842E1,2.035708427E-1,-2.944370508E-1,-1.333213449E-1
1.046372842E1,3.115412891E-1,-1.889100820E-1,-1.301143020E-1
1.047372842E1,3.599523604E-1,-6.887505949E-2,-1.293507218E-1
1.048372842E1,3.599523604E-1,-6.887505949E-2,-1.293507218E-1
1.049372842E1,3.645338416E-1,-9.926560521E-2,-2.000583708E-1
1.050372842E1,3.993531466E-1,-1.525636017E-1,-2.587014437E-1
1.051372842E1,4.393648207E-1,-2.107485086E-1,-3.063489199E-1
1.052372842E1,4.951062799E-1,-2.868012190E-1,-3.332269788E-1
1.053372842E1,5.655084848E-1,-3.568980098E-1,-3.382666409E-1
1.054372842E1,6.980662346E-1,-4.531092942E-1,-2.874121070E-1
1.055372842E1,7.591527700E-1,-4.769330323E-1,-2.313652188E-1
1.056372842E1,8.165740967E-1,-5.032002330E-1,-1.632537395E-1
1.057372842E1,8.654433489E-1,-5.343543887E-1,-9.376781434E-2
1.058372842E1,8.888089061E-1,-5.607742667E-1,-3.283400834E-2
1.059372842E1,8.626944423E-1,-5.363397002E-1,6.246097013E-2
1.060372842E1,8.300131559E-1,-4.819726646E-1,9.300423414E-2
1.061372842E1,7.657195926E-1,-4.686863720E-1,1.078177169E-1
1.062372842E1,6.759223938E-1,-4.786129296E-1,1.240056455E-1
1.063372842E1,5.874996781E-1,-4.619668424E-1,1.475239545E-1
1.064372842E1,5.219843388E-1,-4.149302244E-1,1.623374373E-1
1.065372842E1,4.308127165E-1,-2.906191349E-1,1.563815027E-1
1.066372842E1,3.772092760E-1,-2.290744632E-1,1.308778822E-1
1.067372842E1,3.320052624E-1,-2.002110779E-1,9.682214260E-2
1.068372842E1,3.087923825E-1,-2.015855312E-1,6.627888232E-2
1.069372842E1,3.002402782E-1,-2.066251636E-1,3.711006418E-2
1.070372842E1,2.684752643E-1,-1.414152980E-1,1.756237634E-2
1.071372842E1,2.672535479E-1,-7.483099401E-2,2.474004216E-2
1.072372842E1,2.842050493E-1,-5.421429127E-2,3.084869497E-2
1.073372842E1,2.990185320E-1,-1.073595658E-1,4.550946131E-2
1.074372842E1,3.040581644E-1,-2.015855312E-1,7.605272532E-2
1.075372842E1,2.945897579E-1,-2.741257846E-1,1.165225431E-1
1.076372842E1,1.853975952E-1,-1.763873398E-1,1.327104717E-1
1.077372842E1,1.192714423E-1,1.313360315E-2,6.429356337E-2
1.078372842E1,7.360926270E-2,2.522873580E-1,-5.070181563E-2
1.079372842E1,6.062837690E-2,4.902193546E-1,-1.840231568E-1
1.080372842E1,7.819075137E-2,6.595817208E-1,-2.588541508E-1
1.081372842E1,1.986839175E-1,7.290676832E-1,-1.824959964E-1
1.082372842E1,3.153591752E-1,6.241515875E-1,-1.828014255E-1
1.083372842E1,3.962988257E-1,4.366159439E-1,-2.840523422E-1
1.084372842E1,4.185954034E-1,3.648392558E-1,-4.474588037E-1
1.085372842E1,3.923282027E-1,3.436116874E-1,-6.145304441E-1
1.086372842E1,3.103195429E-1,3.660610020E-1,-7.388415337E-1
1.087372842E1,5.818491429E-2,4.253149331E-1,-8.978192210E-1
1.088372842E1,2.428189293E-2,4.688390791E-1,-8.978192210E-1
1.089372842E1,5.497787148E-2,5.647448897E-1,-7.967209816E-1
1.090372842E1,4.963280261E-2,6.281222105E-1,-6.577491760E-1
1.091372842E1,-1.649336144E-2,6.548475623E-1,-5.268712640E-1
1.092372842E1,-9.880745411E-2,5.572618246E-1,-2.593123019E-1
1.093372842E1,-6.902777404E-2,3.895792961E-1,-1.333213449E-1
1.094372842E1,-8.704829961E-3,1.783726513E-1,-1.847867295E-2
1.095372842E1,4.902193695E-2,-2.199114859E-2,8.643743396E-2
1.096372842E1,6.902777404E-2,-1.742493063E-1,1.696678251E-1
1.097372842E1,3.543018550E-2,-2.443460971E-1,2.333505303E-1
1.098372842E1,-1.305724531E-1,-1.478293836E-1,3.167336285E-1
1.099372842E1,-2.228130996E-1,-5.849034712E-2,3.182607889E-1
1.100372842E1,-2.898555696E-1,1.374446787E-2,2.927571833E-1
1.101372842E1,-3.226895630E-1,4.382958263E-2,2.585487068E-1
1.102372842E1,-3.338378668E-1,4.001167417E-2,2.269364446E-1
1.103372842E1,-3.523165286E-1,-3.756821156E-2,1.673770845E-1
1.104372842E1,-3.814853430E-1,-8.246681094E-2,1.406517178E-1
1.105372842E1,-4.363104999E-1,-1.178969890E-1,1.079704314E-1
1.106372842E1,-5.056437254E-1,-1.496619880E-1,7.040221989E-2
1.107372842E1,-5.713117123E-1,-1.849394590E-1,3.772092983E-2
1.108372842E1,-6.296493411E-1,-2.191479057E-1,5.039638374E-3
1.109372842E1,-7.185302377E-1,-2.751947939E-1,-4.932736978E-2
1.110372842E1,-7.441865802E-1,-3.239113092E-1,-9.437867999E-2
1.111372842E1,-7.455610037E-1,-3.904955983E-1,-1.369865239E-1
1.112372842E1,-7.153232098E-1,-4.570799172E-1,-1.675297916E-1
1.113372842E1,-6.620252132E-1,-4.969388843E-1,-1.870774776E-1
1.114372842E1,-5.309945941E-1,-4.964807332E-1,-2.058615834E-1
1.115372842E1,-4.667010605E-1,-4.673119187E-1,-2.049452960E-1
1.116372842E1,-4.071416855E-1,-4.163046777E-1,-1.942551434E-1
1.117372842E1,-3.610213697E-1,-3.507893682E-1,-1.750128865E-1
1.118372842E1,-3.245221674E-1,-2.742784917E-1,-1.545489132E-1
1.119372842E1,-2.965750694E-1,-2.136501223E-1,-1.363756657E-1
1.120372842E1,-2.296853364E-1,-1.044579595E-1,-9.178250283E-2
1.121372842E1,-1.945605874E-1,-6.566801667E-2,-7.849618047E-2
1.122372842E1,-1.847867370E-1,-7.040221989E-2,-8.216137439E-2
1.123372842E1,-2.237294018E-1,-1.299615800E-1,-1.014036313E-1
1.124372842E1,-2.855795026E-1,-2.063197345E-1,-1.206458881E-1
1.125372842E1,-3.161227703E-1,-2.658790946E-1,-1.618792862E-1
1.126372842E1,-2.571742535E-1,-3.979786932E-1,-2.887865305E-1
1.127372842E1,-2.765692472E-1,-4.366159439E-1,-2.788599730E-1
1.128372842E1,-3.187189400E-1,-3.579670191E-1,-2.020436823E-1
1.129372842E1,-3.303253949E-1,-1.253800988E-1,-7.666359097E-2
1.130372842E1,-3.019201458E-1,2.163990140E-1,8.613199741E-2
1.131372842E1,-2.796235681E-1,8.257371187E-1,3.023782969E-1
1.132372842E1,-2.750420868E-1,9.199630618E-1,2.570215464E-1
1.133372842E1,-2.729040384E-1,8.593347073E-1,1.753183305E-1
1.134372842E1,-3.168863356E-1,6.811147332E-1,1.061378345E-1
1.135372842E1,-3.859141171E-1,4.593706727E-1,9.346238524E-2
1.136372842E1,-3.987422884E-1,3.616322279E-1,1.569923609E-1
1.137372842E1,-9.254608303E-2,6.795875728E-2,4.150829315E-1
1.138372842E1,6.017022580E-2,-2.021963894E-1,5.577199459E-1
1.139372842E1,8.429940045E-2,-4.062253833E-1,7.338019013E-1
1.140372842E1,-2.886338346E-2,-4.506658316E-1,9.392052889E-1
1.141372842E1,-2.186897546E-1,-3.480404615E-1,1.088714600E0
1.142372842E1,-3.277291954E-1,3.411682248E-1,1.025642753E0
1.143372842E1,-2.255619913E-1,7.560984492E-1,8.927795291E-1
1.144372842E1,-1.562287807E-1,9.676105380E-1,7.250970602E-1
1.145372842E1,-1.557706445E-1,9.453139901E-1,5.505422950E-1
1.146372842E1,-1.857030392E-1,7.814493775E-1,3.740022480E-1
1.147372842E1,-2.070833147E-1,6.163630486E-1,2.023491114E-1
1.148372842E1,-1.001819000E-1,3.762930036E-1,-7.834346592E-2
1.149372842E1,2.199114859E-2,2.796235681E-1,-1.701259762E-1
1.150372842E1,1.273654103E-1,2.133446932E-1,-2.156354338E-1
1.151372842E1,1.857030392E-1,1.432479024E-1,-2.290744632E-1
1.152372842E1,2.222022265E-1,9.987647086E-2,-2.292271852E-1
1.153372842E1,3.459024429E-1,1.267545372E-1,-2.199114859E-1
1.154372842E1,4.479169548E-1,1.525636017E-1,-2.277000248E-1
1.155372842E1,5.436700583E-1,1.516472995E-1,-2.390010208E-1
1.156372842E1,6.177374721E-1,1.215621829E-1,-2.379320115E-1
1.157372842E1,6.725626588E-1,5.528330430E-2,-2.173153162E-1
1.158372842E1,7.202101350E-1,-2.916881628E-2,-1.818851233E-1
1.159372842E1,8.190175891E-1,-1.255328059E-1,-8.093964309E-2
1.160372842E1,8.703302741E-1,-1.432479024E-1,-1.878410578E-2
1.161372842E1,9.046914577E-1,-1.696678251E-1,3.970624134E-2
1.162372842E1,9.158397317E-1,-2.044871449E-1,9.224065393E-2
1.163372842E1,8.943067193E-1,-2.359467000E-1,1.447750628E-1
1.164372842E1,8.109236360E-1,-3.364340365E-1,2.050980031E-1
1.165372842E1,7.574729323E-1,-3.657555580E-1,1.954768747E-1
1.166372842E1,6.980662346E-1,-3.405573666E-1,1.847867370E-1
1.167372842E1,6.226243973E-1,-2.681698501E-1,1.763873398E-1
1.168372842E1,5.290092826E-1,-1.898263693E-1,1.545489132E-1
1.169372842E1,4.378376603E-1,-1.695151031E-1,1.389718503E-1
1.170372842E1,3.029891551E-1,-2.620611787E-1,8.597928286E-2
1.171372842E1,2.591595948E-1,-3.216205537E-1,4.474587739E-2
1.172372842E1,2.225076705E-1,-3.533855379E-1,3.512475174E-3
1.173372842E1,1.895209402E-1,-3.449861407E-1,-3.176499158E-2
1.174372842E1,1.626428664E-1,-3.077233732E-1,-6.352998316E-2
1.175372842E1,1.476766765E-1,-1.397354305E-1,-1.052215397E-1
1.176372842E1,1.426370293E-1,1.389718428E-2,-1.322523206E-1
1.177372842E1,1.533271819E-1,1.215621829E-1,-1.386664063E-1
1.178372842E1,1.996002197E-1,1.230893433E-1,-1.107193232E-1
1.179372842E1,2.703078687E-1,3.741549700E-2,-6.444628537E-2
1.180372842E1,3.130684495E-1,-6.398813426E-2,-2.794708498E-2
1.181372842E1,3.101668358E-1,-2.924517393E-1,6.154467165E-2
1.182372842E1,3.675881624E-1,-3.888157308E-1,1.140790880E-1
1.183372842E1,4.636467099E-1,-3.920227587E-1,1.539380401E-1
1.184372842E1,5.157229900E-1,-2.866485119E-1,1.658499092E-1
1.185372842E1,4.804455042E-1,-1.088867337E-1,1.595885456E-1
1.186372842E1,4.778493345E-1,2.626720667E-1,2.028072625E-1
1.187372842E1,5.981897712E-1,3.601050675E-1,2.657263875E-1
1.188372842E1,7.124215961E-1,3.265074790E-1,2.860376537E-1
1.189372842E1,7.961101532E-1,3.023782931E-2,2.167044431E-1
1.190372842E1,8.405506015E-1,-2.652682364E-1,7.910704613E-2
1.191372842E1,8.251262307E-1,-3.627012372E-1,-1.073595658E-1
1.192372842E1,3.321579695E-1,-2.712241709E-1,-6.243042946E-1
1.193372842E1,-3.054326167E-3,-6.108652451E-4,-8.688030839E-1
1.194372842E1,-1.559233516E-1,3.469714522E-1,-1.026253581E0
1.195372842E1,-5.665775016E-2,7.405213714E-1,-1.011440158E0
1.196372842E1,1.113301888E-1,1.067028880E0,-8.356636763E-1
1.197372842E1,-2.794708498E-2,1.107345939E0,-5.239696503E-1
1.198372842E1,-1.970040351E-1,9.764680862E-1,-4.011857510E-1
1.199372842E1,-2.861903608E-1,8.156577945E-1,-2.981022298E-1
1.200372842E1,-2.784018219E-1,6.233879924E-1,-2.269364446E-1
1.201372842E1,-2.087631971E-1,4.011857510E-1,-1.756237596E-1
1.202372842E1,-1.475239545E-1,1.933388561E-1,-1.133155003E-1
1.203372842E1,-2.412917763E-1,-9.804387391E-2,3.161227703E-2
1.204372842E1,-3.744603992E-1,-8.506298810E-2,1.064432710E-1
1.205372842E1,-4.845688641E-1,1.771509275E-2,1.652390510E-1
1.206372842E1,-5.270239711E-1,1.421788931E-1,1.921171248E-1
1.207372842E1,-5.161811113E-1,2.028072625E-1,2.054034323E-1
1.208372842E1,-4.902193546E-1,-3.054326226E-4,2.519819140E-1
1.209372842E1,-5.057964325E-1,-1.175915599E-1,2.753475010E-1
1.210372842E1,-5.409211516E-1,-1.782199293E-1,2.903137207E-1
1.211372842E1,-6.015495658E-1,-1.820378453E-1,2.831360400E-1
1.212372842E1,-6.783658266E-1,-1.629483104E-1,2.419026345E-1
1.213372842E1,-7.539604306E-1,-1.501201391E-1,1.786780804E-1
1.214372842E1,-8.674286604E-1,-1.556179225E-1,3.390302137E-2
1.215372842E1,-9.199630618E-1,-1.463022232E-1,-2.443460934E-2
1.216372842E1,-9.674578309E-1,-1.417207420E-1,-6.337726861E-2
1.217372842E1,-1.012509108E0,-1.369865239E-1,-8.032877743E-2
1.218372842E1,-1.019992232E0,-1.250746548E-1,-1.033889428E-1
1.219372842E1,-9.013316631E-1,-9.941831976E-2,-1.563815027E-1
1.220372842E1,-8.333728909E-1,-1.235474944E-1,-1.809688359E-1
1.221372842E1,-7.776314616E-1,-1.681406647E-1,-1.933388561E-1
1.222372842E1,-7.229590416E-1,-2.031126916E-1,-1.959350258E-1
1.223372842E1,-6.695083380E-1,-2.162462920E-1,-2.034181207E-1
1.224372842E1,-6.149885654E-1,-2.173153162E-1,-2.145664245E-1
1.225372842E1,-5.094616413E-1,-2.327396572E-1,-2.284636050E-1
1.226372842E1,-4.778493345E-1,-2.738203406E-1,-2.321287990E-1
1.227372842E1,-4.668537676E-1,-3.318525553E-1,-2.344195396E-1
1.228372842E1,-4.668537676E-1,-3.488040566E-1,-2.356412709E-1
1.229372842E1,-4.488332272E-1,-3.197879493E-1,-2.406809032E-1
1.230372842E1,-3.434589803E-1,-3.025310040E-1,-2.947424948E-1
1.231372842E1,-3.036000133E-1,-3.231477141E-1,-3.339905739E-1
1.232372842E1,-3.329215646E-1,-3.972151279E-1,-3.752239645E-1
1.233372842E1,-4.166100919E-1,-5.076290369E-1,-4.088215530E-1
1.234372842E1,-4.761694670E-1,-5.925393105E-1,-4.317290187E-1
1.235372842E1,-4.798346460E-1,-6.192646623E-1,-4.280638099E-1
1.236372842E1,-4.366159439E-1,-4.056145251E-1,-2.527455091E-1
1.237372842E1,-4.178318381E-1,-1.812742651E-1,-9.453139454E-2
1.238372842E1,-4.037819207E-1,9.269879758E-2,7.574728876E-2
1.239372842E1,-3.802636266E-1,3.993531466E-1,2.191479057E-1
1.240372842E1,-3.281873465E-1,6.282749176E-1,2.637410760E-1
1.241372842E1,-2.096794993E-1,5.242751241E-1,1.304197311E-1
1.242372842E1,-1.366810948E-1,2.339613885E-1,1.197295859E-1
1.243372842E1,-4.734205827E-2,-1.374446787E-3,2.234239578E-1
1.244372842E1,8.979719132E-2,-1.128573567E-1,4.453207552E-1
1.245372842E1,3.316998184E-1,-2.044871449E-1,7.472409010E-1
1.246372842E1,5.761986375E-1,-3.251330256E-1,1.058934927E0
1.247372842E1,4.824308157E-1,-5.349652171E-1,1.434158921E0
1.248372842E1,1.724167168E-1,-4.573853612E-1,1.370476127E0
1.249372842E1,-1.238529310E-1,-2.084577680E-1,1.151481032E0
1.250372842E1,-2.897028327E-1,1.362229437E-1,8.196284175E-1
1.251372842E1,-3.103195429E-1,5.090034604E-1,4.140139222E-1
1.252372842E1,-1.733330190E-1,8.727737069E-1,-2.900082767E-1
1.253372842E1,-1.774563491E-1,7.733554244E-1,-3.972151279E-1
1.254372842E1,-2.171625942E-1,5.893322229E-1,-3.735440969E-1
1.255372842E1,-2.131919712E-1,4.152356386E-1,-3.208569586E-1
1.256372842E1,-1.461495161E-1,2.909245789E-1,-2.854267955E-1
1.257372842E1,-6.337726861E-2,1.931861341E-1,-2.587014437E-1
1.258372842E1,5.497787148E-2,4.627304152E-2,-1.734857261E-1
1.259372842E1,1.244637966E-1,2.474004216E-2,-1.212567538E-1
1.260372842E1,2.229658216E-1,2.153299935E-2,-8.994990587E-2
1.261372842E1,3.407101035E-1,1.832595654E-2,-8.185594529E-2
1.262372842E1,4.741841555E-1,6.566801574E-3,-9.575312585E-2
1.263372842E1,7.203628421E-1,1.802052557E-2,-1.417207420E-1
1.264372842E1,8.161159754E-1,2.199114859E-2,-1.518000066E-1
1.265372842E1,8.707883954E-1,6.414085161E-3,-1.533271819E-1
1.266372842E1,8.987354636E-1,-2.489275858E-2,-1.398881376E-1
1.267372842E1,9.123272300E-1,-6.475171447E-2,-1.044579595E-1
1.268372842E1,9.028588533E-1,-1.166752651E-1,-5.925392732E-2
1.269372842E1,8.381071091E-1,-2.496911734E-1,5.100724846E-2
1.270372842E1,8.019133210E-1,-3.234531581E-1,1.014036313E-1
1.271372842E1,7.719809413E-1,-3.863722682E-1,1.492038369E-1
1.272372842E1,7.319692969E-1,-4.529565871E-1,1.750128865E-1
1.273372842E1,6.751587987E-1,-5.074763298E-1,1.850921661E-1
1.274372842E1,5.441282392E-1,-4.425718784E-1,2.110539377E-1
1.275372842E1,4.747950137E-1,-3.591887653E-1,2.099849284E-1
1.276372842E1,3.981314301E-1,-2.518292069E-1,1.966986060E-1
1.277372842E1,3.202461004E-1,-1.226311997E-1,1.747074574E-1
1.278372842E1,2.435825169E-1,5.345070735E-3,1.516472995E-1
1.279372842E1,1.777617931E-1,9.575312585E-2,1.285871267E-1
1.280372842E1,1.072068512E-1,8.093964309E-2,8.857546002E-2
1.281372842E1,1.133155003E-1,1.084285788E-2,8.139779419E-2
1.282372842E1,1.351539344E-1,-4.841107130E-2,7.162395120E-2
1.283372842E1,1.583668143E-1,-9.682214260E-2,7.895433158E-2
1.284372842E1,1.681406647E-1,-1.534798890E-1,1.033889428E-1
1.285372842E1,1.285871267E-1,-3.168863356E-1,1.696678251E-1
1.286372842E1,1.047633886E-1,-4.934264123E-1,2.102903575E-1
1.287372842E1,1.316414624E-1,-6.809620261E-1,2.238821089E-1
1.288372842E1,1.996002197E-1,-7.400632501E-1,1.933388561E-1
1.289372842E1,2.620611787E-1,-6.142250299E-1,1.136209369E-1
1.290372842E1,2.782491148E-1,-3.036000133E-1,-1.023199316E-2
1.291372842E1,1.261436790E-1,5.297728777E-1,-4.014911950E-1
1.292372842E1,8.384125680E-2,9.007207751E-1,-5.569564104E-1
1.293372842E1,9.926560521E-2,1.033736706E0,-5.878050923E-1
1.294372842E1,1.615738571E-1,9.421069026E-1,-5.317581892E-1
1.295372842E1,2.412917763E-1,6.753115058E-1,-4.266893864E-1
1.296372842E1,2.831360400E-1,1.684460938E-1,-4.002694488E-1
1.297372842E1,2.037235647E-1,-2.748893574E-3,-5.193881989E-1
1.298372842E1,9.880745411E-2,-1.461495161E-1,-6.591235995E-1
1.299372842E1,3.161227703E-2,-2.579378486E-1,-7.696902156E-1
1.300372842E1,3.008511290E-2,-3.828597963E-1,-8.353582025E-1
1.301372842E1,7.269296050E-2,-5.436700583E-1,-8.486445546E-1
1.302372842E1,2.021963894E-1,-4.689917862E-1,-6.687447429E-1
1.303372842E1,2.463314086E-1,-2.794708498E-2,-5.085453391E-1
1.304372842E1,2.150245607E-1,5.592471361E-1,-3.640756905E-1
1.305372842E1,1.156062484E-1,1.037249207E0,-2.522873580E-1
1.306372842E1,1.160643995E-2,1.143539786E0,-1.641700417E-1
1.307372842E1,-8.781187981E-2,7.675521970E-1,3.451388702E-2
1.308372842E1,-8.704829961E-2,4.810563922E-1,1.484402567E-1
1.309372842E1,-9.239336848E-2,2.211332172E-1,2.379320115E-1
1.310372842E1,-1.295034289E-1,3.359758854E-2,3.054326177E-1
1.311372842E1,-1.898263693E-1,-7.284568250E-2,3.523165286E-1
1.312372842E1,-2.406809032E-1,-1.261436790E-1,3.830125034E-1
1.313372842E1,-2.368630022E-1,-2.084577680E-1,3.941608071E-1
1.314372842E1,-2.380847335E-1,-2.532036304E-1,3.772092760E-1
1.315372842E1,-2.515237629E-1,-2.811507285E-1,3.601050675E-1
1.316372842E1,-2.843577862E-1,-2.982549667E-1,3.480404615E-1
1.317372842E1,-3.255911767E-1,-3.165809214E-1,3.446807265E-1
1.318372842E1,-4.543310404E-1,-3.714060783E-1,3.182607889E-1
1.319372842E1,-5.238169432E-1,-3.959933817E-1,2.735149264E-1
1.320372842E1,-5.786421299E-1,-4.059199691E-1,2.139555514E-1
1.321372842E1,-6.117815375E-1,-4.050036669E-1,1.408044398E-1
1.322372842E1,-6.134614348E-1,-3.979786932E-1,6.750060618E-2
1.323372842E1,-5.907067060E-1,-3.885102868E-1,-3.359758761E-3
1.324372842E1,-5.560401082E-1,-3.112358451E-1,-9.514226019E-2
1.325372842E1,-5.477933884E-1,-2.640464902E-1,-1.342376322E-1
1.326372842E1,-5.213735104E-1,-1.939497143E-1,-1.722639948E-1
1.327372842E1,-4.657847583E-1,-1.114829108E-1,-2.031126916E-1
1.328372842E1,-3.784310222E-1,-7.147123665E-2,-2.241875380E-1
1.329372842E1,-1.733330190E-1,-6.841690838E-2,-2.188424766E-1
1.330372842E1,-8.949175477E-2,-9.712757170E-2,-1.971567571E-1
1.331372842E1,-3.833179548E-2,-1.149953827E-1,-1.728748679E-1
1.332372842E1,-1.267545391E-2,-1.087340117E-1,-1.388191283E-1
1.333372842E1,1.542434748E-2,-6.505715102E-2,-9.636399150E-2
1.334372842E1,4.825835302E-2,-5.497787148E-3,-6.246097013E-2
1.335372842E1,6.780604273E-2,2.962696366E-2,-3.207042441E-2
1.336372842E1,2.428189293E-2,-3.084869497E-2,-2.443460934E-2
1.337372842E1,-6.551529467E-2,-1.363756657E-1,-1.786780916E-2
1.338372842E1,-1.782199293E-1,-2.336559594E-1,-2.580905706E-2
1.339372842E1,-2.475531399E-1,-2.664899528E-1,-5.115996301E-2
1.340372842E1,-1.884519309E-1,-2.180788964E-1,-9.773843735E-2
1.341372842E1,-1.882992089E-1,-1.562287807E-1,-5.757404864E-2
1.342372842E1,-2.474004179E-1,-4.978551716E-2,1.924225502E-2
1.343372842E1,-3.103195429E-1,1.330159009E-1,1.094975919E-1
1.344372842E1,-3.185662329E-1,3.656028509E-1,1.945605874E-1
1.345372842E1,-2.649627924E-1,5.618433356E-1,2.562579811E-1
1.346372842E1,-2.202169150E-1,6.575964093E-1,2.583959997E-1
1.347372842E1,-2.551889420E-1,4.360050559E-1,2.370157093E-1
1.348372842E1,-2.451096773E-1,2.547308207E-1,3.031418920E-1
1.349372842E1,-1.944078654E-1,2.299907655E-1,4.812090993E-1
1.350372842E1,-6.673702598E-2,2.128865421E-1,7.467827797E-1
1.351372842E1,1.119410545E-1,1.513418704E-1,1.030529618E0
1.352372842E1,1.962404549E-1,-3.390302137E-2,1.337947607E0
1.353372842E1,4.428773001E-2,-9.010262787E-3,1.293354392E0
1.354372842E1,-1.473712474E-1,1.811215430E-1,1.125366449E0
1.355372842E1,-2.629774809E-1,4.511239827E-1,8.776606321E-1
1.356372842E1,-2.837468982E-1,6.644686460E-1,6.443101168E-1
1.357372842E1,-2.658790946E-1,7.400632501E-1,3.512475193E-1
1.358372842E1,-2.785545588E-1,6.501133442E-1,2.391537428E-1
1.359372842E1,-2.851213515E-1,5.529857874E-1,1.123992056E-1
1.360372842E1,-2.747366428E-1,5.138903856E-1,-1.695151068E-2
1.361372842E1,-2.339613885E-1,4.520402849E-1,-1.194241568E-1
1.362372842E1,-1.663080603E-1,3.200933933E-1,-1.988366395E-1
1.363372842E1,-9.773843922E-3,9.544769675E-2,-2.576324046E-1
1.364372842E1,5.207626149E-2,9.621127509E-3,-2.600758672E-1
1.365372842E1,1.177442744E-1,-4.948008433E-2,-2.675589919E-1
1.366372842E1,2.012801021E-1,-8.429940045E-2,-2.971859276E-1
1.367372842E1,2.909245789E-1,-9.392052889E-2,-3.437644243E-1
1.368372842E1,4.022547603E-1,-8.643743396E-2,-4.063780904E-1
1.369372842E1,4.314235747E-1,-9.605856240E-2,-3.955352604E-1
1.370372842E1,4.425718784E-1,-1.116356254E-1,-3.565925956E-1
1.371372842E1,4.404338300E-1,-1.259909570E-1,-2.979495227E-1
1.372372842E1,4.311181605E-1,-1.391245574E-1,-2.295326144E-1
1.373372842E1,4.326453209E-1,-1.414152980E-1,-1.527163088E-1
1.374372842E1,4.903720617E-1,-1.009454802E-1,-1.985312067E-2
1.375372842E1,5.195409060E-1,-5.360342562E-2,-6.108652451E-4
1.376372842E1,5.195409060E-1,-3.909537569E-2,-1.527163107E-2
1.377372842E1,4.830417037E-1,-4.642575979E-2,-2.733621933E-2
1.378372842E1,4.295909703E-1,-5.024366826E-2,-1.970040426E-2
1.379372842E1,3.278819323E-1,-6.856962293E-2,2.580905706E-2
1.380372842E1,2.661845386E-1,-8.323039114E-2,3.451388702E-2
1.381372842E1,2.017382532E-1,-9.926560521E-2,2.871066704E-2
1.382372842E1,1.446223408E-1,-1.188132912E-1,1.435533352E-2
1.383372842E1,9.972374886E-2,-1.430951804E-1,-2.596177394E-3
1.384372842E1,6.566801667E-2,-1.650863290E-1,-1.710422710E-2
1.385372842E1,5.589416996E-2,-2.304489166E-1,-3.527746722E-2
1.386372842E1,8.139779419E-2,-2.715296149E-1,-3.772092983E-2
1.387372842E1,1.215621829E-1,-2.991712391E-1,-1.588249579E-2
1.388372842E1,1.618792862E-1,-2.832887471E-1,3.039054573E-2
1.389372842E1,2.046398520E-1,-2.611449063E-1,8.506298810E-2
1.390372842E1,3.298672438E-1,-2.690861523E-1,1.420261711E-1
1.391372842E1,3.724750876E-1,-2.180788964E-1,1.551597714E-1
1.392372842E1,3.614795208E-1,-1.104138941E-1,1.586722434E-1
1.393372842E1,2.956587672E-1,7.788531948E-3,1.209513173E-1
1.394372842E1,2.028072625E-1,9.804387391E-2,2.351831272E-2
1.395372842E1,1.316414624E-1,1.627955884E-1,-1.032362282E-1
1.396372842E1,1.293507218E-1,3.533855379E-1,-2.999348342E-1
1.397372842E1,1.145372316E-1,4.331034720E-1,-3.379611969E-1
1.398372842E1,9.621127695E-2,4.184426963E-1,-3.610213697E-1
1.399372842E1,1.178969890E-1,2.768746614E-1,-4.048509300E-1
1.400372842E1,1.661553532E-1,1.485929638E-1,-4.780020416E-1
1.401372842E1,1.626428664E-1,3.561344445E-1,-6.759223938E-1
1.402372842E1,8.307767659E-2,5.952881575E-1,-7.651087046E-1
1.403372842E1,2.794708498E-2,7.994698882E-1,-8.190175891E-1
1.404372842E1,3.512475267E-2,9.445503950E-1,-8.217664957E-1
1.405372842E1,9.605856240E-2,9.534079432E-1,-7.634288669E-1
1.406372842E1,1.902845204E-1,7.869471312E-1,-6.609562039E-1
1.407372842E1,2.015855312E-1,7.742717117E-2,-4.486805201E-1
1.408372842E1,9.896016866E-2,-1.478293836E-1,-3.894265890E-1
1.409372842E1,5.650503561E-3,-1.806633919E-1,-3.535382748E-1
1.410372842E1,-4.153883830E-2,-1.675297916E-1,-3.339905739E-1
1.411372842E1,-4.749477282E-2,-1.734857261E-1,-3.046690524E-1
1.412372842E1,-5.390885845E-2,-3.025310040E-1,-1.737911552E-1
1.413372842E1,-9.101892263E-2,-3.944662213E-1,-8.933904022E-2
1.414372842E1,-1.597412676E-1,-4.343251884E-1,4.886921961E-3
1.415372842E1,-2.612976134E-1,-4.173736870E-1,9.560041130E-2
1.416372842E1,-3.604104817E-1,-4.091269970E-1,1.594358236E-1
1.417372842E1,-4.233296216E-1,-4.466952085E-1,1.986839175E-1
1.418372842E1,-5.018258095E-1,-4.781547785E-1,2.796235681E-1
1.419372842E1,-5.514585972E-1,-4.468479156E-1,3.042109013E-1
1.420372842E1,-5.975789428E-1,-4.057672322E-1,3.115412891E-1
1.421372842E1,-6.414085031E-1,-3.442225754E-1,3.068070710E-1
1.422372842E1,-6.866125464E-1,-2.622139156E-1,2.713768780E-1
1.423372842E1,-7.794640660E-1,-2.107485086E-1,1.411098689E-1
1.424372842E1,-8.356636763E-1,-2.341141105E-1,5.955936015E-2
1.425372842E1,-8.944594264E-1,-2.599231601E-1,-2.321287990E-2
1.426372842E1,-9.468411207E-1,-2.675589919E-1,-8.399397135E-2
1.427372842E1,-9.822713137E-1,-2.568688393E-1,-1.217148975E-1
1.428372842E1,-9.921978712E-1,-2.376265824E-1,-1.485929638E-1
1.429372842E1,-9.135489464E-1,-1.685988009E-1,-2.050980031E-1
1.430372842E1,-8.263479471E-1,-1.586722434E-1,-2.335032374E-1
1.431372842E1,-7.377725244E-1,-1.850921661E-1,-2.446515262E-1
1.432372842E1,-6.563746929E-1,-2.272418737E-1,-2.461786866E-1
1.433372842E1,-5.810855627E-1,-2.559525371E-1,-2.365575731E-1
1.434372842E1,-4.413501322E-1,-2.929098904E-1,-1.956295967E-1
1.435372842E1,-3.769038618E-1,-2.987131178E-1,-1.798998117E-1
1.436372842E1,-3.234531581E-1,-2.901609838E-1,-1.740965992E-1
1.437372842E1,-2.797762752E-1,-2.912299931E-1,-1.730275750E-1
1.438372842E1,-2.469422817E-1,-2.947424948E-1,-1.744020283E-1
1.439372842E1,-2.069306076E-1,-2.874121070E-1,-1.806633919E-1
1.440372842E1,-1.438587606E-1,-3.355177343E-1,-1.808161139E-1
1.441372842E1,-1.702786833E-1,-3.839288056E-1,-1.586722434E-1
1.442372842E1,-2.466368377E-1,-4.046982229E-1,-1.363756657E-1
1.443372842E1,-3.523165286E-1,-3.675881624E-1,-1.408044398E-1
1.444372842E1,-4.338670373E-1,-2.929098904E-1,-1.736384481E-1
1.445372842E1,-4.134030640E-1,-1.803579628E-1,-1.898263693E-1
1.446372842E1,-3.840815127E-1,-1.316414624E-1,-1.386664063E-1
1.447372842E1,-3.811798990E-1,-3.466660157E-2,-4.367686436E-2
1.448372842E1,-4.062253833E-1,1.133155003E-1,7.452555746E-2
1.449372842E1,-4.350887835E-1,2.658790946E-1,1.634064466E-1
1.450372842E1,-4.253149331E-1,3.700316250E-1,1.999056488E-1
1.451372842E1,-4.147774875E-1,4.195117056E-1,1.240056455E-1
1.452372842E1,-4.964807332E-1,3.512475193E-1,2.687807009E-2
1.453372842E1,-5.818491578E-1,2.733621895E-1,-4.718934000E-2
1.454372842E1,-6.157521605E-1,3.132211566E-1,-2.993239649E-2
1.455372842E1,-5.728389025E-1,4.007275999E-1,7.712173462E-2
1.456372842E1,-4.046982229E-1,4.760167301E-1,4.399756789E-1
1.457372842E1,-4.182899892E-1,3.930917978E-1,6.207917929E-1
1.458372842E1,-4.867068827E-1,2.758056521E-1,7.774787545E-1
1.459372842E1,-5.650503635E-1,1.536326110E-1,8.633053303E-1
1.460372842E1,-6.001750827E-1,3.008511290E-2,8.356636763E-1
1.461372842E1,-5.677992702E-1,-4.993823543E-2,7.501425147E-1
1.462372842E1,-4.494441152E-1,-8.613199741E-2,6.388123035E-1
1.463372842E1,-4.558582008E-1,-7.788532227E-2,5.667302608E-1
1.464372842E1,-4.938845634E-1,-5.406157300E-2,4.766276181E-1
1.465372842E1,-5.199990273E-1,2.657263726E-2,3.703370690E-1
1.466372842E1,-5.001459122E-1,1.400408596E-1,2.481640130E-1
1.467372842E1,-2.880229652E-1,2.863430977E-1,-2.382374369E-2
1.468372842E1,-1.403462887E-1,2.829833329E-1,-1.061378345E-1
1.469372842E1,-2.138028387E-3,3.196352422E-1,-1.420261711E-1
1.470372842E1,1.032362282E-1,4.178318381E-1,-1.597412676E-1
1.471372842E1,1.698205322E-1,5.135849714E-1,-1.783726513E-1
1.472372842E1,2.194533348E-1,5.282457471E-1,-2.090686262E-1
1.473372842E1,3.283400834E-1,3.672827184E-1,-3.129157126E-1
1.474372842E1,3.718642294E-1,2.232712507E-1,-3.604104817E-1
1.475372842E1,3.914119005E-1,5.635231733E-2,-3.749185503E-1
1.476372842E1,3.819434941E-1,-9.117163718E-2,-3.575088978E-1
1.477372842E1,3.543018401E-1,-2.000583708E-1,-3.231477141E-1
1.478372842E1,3.196352422E-1,-2.797762752E-1,-2.142609805E-1
1.479372842E1,3.248275816E-1,-2.808452845E-1,-1.519527286E-1
1.480372842E1,3.335324228E-1,-2.866485119E-1,-1.007927656E-1
1.481372842E1,3.387247920E-1,-3.193297982E-1,-6.414084882E-2
1.482372842E1,3.413209617E-1,-3.410155177E-1,-3.481931984E-2
1.483372842E1,3.280346394E-1,-3.240640163E-1,-1.038470957E-2
1.484372842E1,2.625193298E-1,-2.212859392E-1,3.115412779E-2
1.485372842E1,2.055561543E-1,-1.681406647E-1,4.963280261E-2
1.486372842E1,1.304197311E-1,-1.356120855E-1,6.688974798E-2
1.487372842E1,4.428773001E-2,-1.189660057E-1,7.819075137E-2
1.488372842E1,-3.222314268E-2,-1.385136992E-1,8.093964309E-2
1.489372842E1,-1.452332139E-1,-2.212859392E-1,3.390302137E-2
1.490372842E1,-1.647808999E-1,-2.866485119E-1,9.621127509E-3
1.491372842E1,-1.501201391E-1,-3.568980098E-1,-1.099557430E-2
1.492372842E1,-1.004873365E-1,-4.269948006E-1,-2.336559631E-2
1.493372842E1,-3.115412779E-2,-4.738787115E-1,-1.496619824E-2
1.494372842E1,3.817907721E-2,-4.531092942E-1,1.771509275E-2
1.495372842E1,1.125519201E-1,-2.104430795E-1,1.317941695E-1
1.496372842E1,1.029307917E-1,-4.948008433E-2,1.730275750E-1
1.497372842E1,9.560041130E-2,9.208793938E-2,1.947132945E-1
1.498372842E1,1.233947799E-1,1.901318133E-1,1.847867370E-1
1.499372842E1,1.595885456E-1,2.736676335E-1,1.453859210E-1
1.500372842E1,1.518000066E-1,3.762930036E-1,7.208210230E-2
1.501372842E1,1.165225431E-1,3.846924007E-1,5.879577994E-2
1.502372842E1,5.451972410E-2,4.219551682E-1,5.406157300E-2
1.503372842E1,-1.603521220E-2,5.039638281E-1,4.321871698E-2
1.504372842E1,-6.475171447E-2,5.871942043E-1,5.345070735E-3
1.505372842E1,-7.742717117E-2,5.989533663E-1,-1.007927656E-1
1.506372842E1,1.695151068E-2,4.677700698E-1,-4.218024611E-1
1.507372842E1,5.604688451E-2,4.734205604E-1,-6.075055003E-1
1.508372842E1,-3.741549700E-2,5.899431109E-1,-8.135197759E-1
1.509372842E1,-2.386955917E-1,8.029823899E-1,-9.802860022E-1
1.510372842E1,-4.541783035E-1,1.021061301E0,-1.076344609E0
1.511372842E1,-4.541783035E-1,1.021061301E0,-1.076344609E0
1.512372842E1,-5.442809463E-1,6.919575930E-1,-9.644035101E-1
1.513372842E1,-4.682282209E-1,3.937026560E-1,-8.361217976E-1
1.514372842E1,-4.686863720E-1,2.076941878E-1,-7.270823717E-1
1.515372842E1,-5.739079118E-1,1.325577646E-1,-6.632469296E-1
1.516372842E1,-7.145596147E-1,9.712757170E-2,-6.382014751E-1
1.517372842E1,-8.138252497E-1,-1.939497143E-2,-6.072000265E-1
1.518372842E1,-8.051204085E-1,-9.300423414E-2,-5.801692605E-1
1.519372842E1,-8.255843520E-1,-1.401935667E-1,-5.445863605E-1
1.520372842E1,-9.078984857E-1,-1.948660165E-1,-5.161811113E-1
1.521372842E1,-1.042441487E0,-2.290744632E-1,-4.998404980E-1
1.522372842E1,-1.291216373E0,-1.655444801E-1,-4.746423066E-1
1.523372842E1,-1.357953429E0,-1.391245574E-1,-4.572326243E-1
1.524372842E1,-1.413694859E0,-1.476766765E-1,-4.375322461E-1
1.525372842E1,-1.475545049E0,-1.576032341E-1,-4.227187634E-1
1.526372842E1,-1.545794487E0,-1.638645977E-1,-4.126394689E-1
1.527372842E1,-1.624748826E0,-1.640173197E-1,-4.184426963E-1
1.528372842E1,-1.815644264E0,-2.168571651E-1,-4.896084964E-1
1.529372842E1,-1.915367961E0,-2.886338234E-1,-5.453499556E-1
1.530372842E1,-2.011579275E0,-3.568980098E-1,-6.070473194E-1
1.531372842E1,-2.105194330E0,-4.141666293E-1,-6.652322412E-1
1.532372842E1,-2.187966585E0,-4.521929920E-1,-7.124215961E-1
1.533372842E1,-2.285399675E0,-5.045747161E-1,-7.828238010E-1
1.534372842E1,-2.281887054E0,-5.180137157E-1,-8.072584271E-1
1.535372842E1,-2.245540619E0,-5.119050741E-1,-8.280278444E-1
1.536372842E1,-2.187355757E0,-4.876231849E-1,-8.393288255E-1
1.537372842E1,-2.121840477E0,-4.497495294E-1,-8.274169564E-1
1.538372842E1,-2.049911022E0,-4.216497242E-1,-7.861835957E-1
1.539372842E1,-2.049911022E0,-4.216497242E-1,-7.861835957E-1
1.540372842E1,-2.049911022E0,-4.216497242E-1,-7.861835957E-1
1.541372842E1,-1.669036508E0,-3.824016452E-1,-5.862779021E-1
1.542372842E1,-1.572825313E0,-3.747658134E-1,-5.256495476E-1
1.543372842E1,-1.502270341E0,-3.501785100E-1,-4.772384763E-1
1.544372842E1,-1.408655286E0,-2.700024247E-1,-4.459316432E-1
1.545372842E1,-1.366352797E0,-2.322815061E-1,-4.534147382E-1
1.546372842E1,-1.327562928E0,-1.947132945E-1,-4.731151462E-1
1.547372842E1,-1.278082848E0,-1.123992056E-1,-4.978551865E-1
1.548372842E1,-1.176221013E0,-5.283984542E-2,-5.093088746E-1
1.549372842E1,-1.069319606E0,-1.007927656E-1,-4.938845634E-1
1.550372842E1,-1.119410515E0,-2.663372457E-1,-3.457497358E-1
1.551372842E1,-1.162934661E0,-1.237002090E-1,-3.103195429E-1
1.552372842E1,-1.100015640E0,9.315694869E-2,-2.962696552E-1
1.553372842E1,-9.738719463E-1,2.521346211E-1,-2.787072659E-1
1.554372842E1,-8.730791807E-1,3.141374588E-1,-2.620611787E-1
1.555372842E1,-8.197811842E-1,3.772092760E-1,-2.782491148E-1
1.556372842E1,-8.261952400E-1,4.642575979E-1,-3.187189400E-1
1.557372842E1,-8.581129313E-1,5.316054821E-1,-3.967569768E-1
1.558372842E1,-9.143125415E-1,5.652030706E-1,-4.662429094E-1
1.559372842E1,-9.836457372E-1,6.375905871E-1,-4.673119187E-1
1.560372842E1,-1.058629513E0,8.420777321E-1,-3.868304193E-1
1.561372842E1,-1.017701507E0,1.258535147E0,1.127046347E-1
1.562372842E1,-9.421069026E-1,1.251204729E0,4.077525437E-1
1.563372842E1,-9.778425694E-1,1.156978726E0,5.227479339E-1
1.564372842E1,-1.063363671E0,1.091158032E0,4.072943926E-1
1.565372842E1,-1.076497316E0,9.137017131E-1,1.635591686E-1
1.566372842E1,-8.706356883E-1,4.703662395E-1,-2.391537428E-1
1.567372842E1,-8.321511745E-1,3.031418920E-1,-3.501785100E-1
1.568372842E1,-8.568912148E-1,1.661553532E-1,-4.413501322E-1
1.569372842E1,-8.778133392E-1,6.062837690E-2,-5.131267905E-1
1.570372842E1,-8.426886201E-1,-0.000000000E0,-5.655084848E-1
1.571372842E1,-7.652614117E-1,-1.313360315E-2,-6.073527932E-1
1.572372842E1,-5.713117123E-1,7.086037099E-2,-6.557638645E-1
1.573372842E1,-5.155702829E-1,1.351539344E-1,-6.389650702E-1
1.574372842E1,-5.360342264E-1,2.054034323E-1,-6.134614348E-1
1.575372842E1,-6.294966340E-1,2.510656118E-1,-6.009386778E-1
1.576372842E1,-7.279986739E-1,3.100140989E-1,-6.201809645E-1
1.577372842E1,-7.780895829E-1,4.065308273E-1,-6.823364496E-1
1.578372842E1,-7.499898076E-1,4.955644310E-1,-8.718574047E-1
1.579372842E1,-7.115052938E-1,4.543310404E-1,-9.427177906E-1
1.580372842E1,-6.800457239E-1,3.709479272E-1,-9.816604257E-1
1.581372842E1,-6.629415154E-1,2.512183189E-1,-9.815077186E-1
1.582372842E1,-6.516404748E-1,1.024726480E-1,-9.361509681E-1
1.583372842E1,-5.826127529E-1,-1.653917581E-1,-7.626652718E-1
1.584372842E1,-5.287038684E-1,-2.461786866E-1,-6.664539576E-1
1.585372842E1,-4.821254015E-1,-3.098613918E-1,-5.933028460E-1
1.586372842E1,-4.673119187E-1,-3.738495409E-1,-5.577199459E-1
1.587372842E1,-4.757113159E-1,-4.016439021E-1,-5.369505286E-1
1.588372842E1,-4.853324294E-1,-3.520110846E-1,-5.151121020E-1
1.589372842E1,-4.925101101E-1,-2.225076705E-1,-4.737260044E-1
1.590372842E1,-5.022839308E-1,-1.753183305E-1,-4.749477208E-1
1.591372842E1,-5.303837657E-1,-1.536326110E-1,-4.981606007E-1
1.592372842E1,-5.668829679E-1,-1.453859210E-1,-5.163338780E-1
1.593372842E1,-6.081163287E-1,-1.382082552E-1,-5.222898126E-1
1.594372842E1,-6.530149579E-1,-1.153008118E-1,-5.111414790E-1
1.595372842E1,-6.299547553E-1,-1.020144969E-1,-5.051855445E-1
1.596372842E1,-5.752823353E-1,-1.090394482E-1,-5.053382516E-1
1.597372842E1,-5.012149215E-1,-1.548543423E-1,-4.969388843E-1
1.598372842E1,-4.135557711E-1,-2.306016237E-1,-4.630358517E-1
1.599372842E1,-3.135266006E-1,-3.040581644E-1,-3.900374472E-1
1.600372842E1,-1.426370293E-1,-3.683517575E-1,-1.989893466E-1
1.601372842E1,-7.666359097E-2,-3.714060783E-1,-1.039998084E-1
1.602372842E1,6.261368748E-3,-3.431535661E-1,-2.993239649E-2
1.603372842E1,9.010262042E-2,-2.460259795E-1,-3.512475174E-3
1.604372842E1,1.299615800E-1,-9.101892263E-2,-8.857546374E-3
1.605372842E1,1.007927675E-2,2.542726696E-1,-1.237002090E-1
1.606372842E1,-5.711590126E-2,3.422372639E-1,-1.992947906E-1
1.607372842E1,-8.048149943E-2,3.517056704E-1,-2.516764700E-1
1.608372842E1,-7.925976813E-2,3.455969989E-1,-2.590068579E-1
1.609372842E1,-7.666359097E-2,3.614795208E-1,-2.382374406E-1
1.610372842E1,-6.337726861E-2,3.639229834E-1,-2.310597748E-1
1.611372842E1,2.596177347E-2,3.324634135E-1,-3.495676219E-1
1.612372842E1,8.964447677E-2,4.134030640E-1,-4.378376603E-1
1.613372842E1,1.024726480E-1,4.833471179E-1,-5.355761051E-1
1.614372842E1,2.779436857E-2,4.222606122E-1,-6.719517708E-1
1.615372842E1,-1.113301888E-1,3.512475193E-1,-8.312348723E-1
1.616372842E1,-3.952298164E-1,3.703370690E-1,-1.063210964E0
1.617372842E1,-4.109596014E-1,3.364340365E-1,-1.037554622E0
1.618372842E1,-3.750712574E-1,2.351831198E-1,-9.398161769E-1
1.619372842E1,-3.840815127E-1,1.750128865E-1,-8.078693151E-1
1.620372842E1,-4.549418986E-1,2.018909603E-1,-6.502660513E-1
1.621372842E1,-5.342016816E-1,2.590068579E-1,-4.670064747E-1
1.622372842E1,-5.342016816E-1,2.590068579E-1,-4.670064747E-1
1.623372842E1,-4.874704778E-1,2.165517360E-1,-1.182024255E-1
1.624372842E1,-4.460843503E-1,7.757988572E-2,-1.094975919E-1
1.625372842E1,-4.387539625E-1,-9.315694869E-2,-1.336267740E-1
1.626372842E1,-4.557054639E-1,-2.118175179E-1,-1.627955884E-1
1.627372842E1,-4.958698750E-1,-1.876883507E-1,-1.589776874E-1
1.628372842E1,-5.175555944E-1,-1.333213449E-1,-1.284344196E-1
1.629372842E1,-5.465716720E-1,-1.006400511E-1,-8.933904022E-2
1.630372842E1,-5.899431109E-1,-1.078177169E-1,-5.009094998E-2
1.631372842E1,-6.456845403E-1,-1.406517178E-1,-2.672535367E-2
1.632372842E1,-7.063129544E-1,-1.867720485E-1,-2.886338346E-2
1.633372842E1,-8.681922555E-1,-2.396118939E-1,-1.295034289E-1
1.634372842E1,-9.645562172E-1,-2.388483137E-1,-2.072360367E-1
1.635372842E1,-1.048550248E0,-2.368630022E-1,-2.678644061E-1
1.636372842E1,-1.104597092E0,-2.383901626E-1,-3.080287874E-1
1.637372842E1,-1.124144793E0,-2.518292069E-1,-3.408628106E-1
1.638372842E1,-1.103680730E0,-2.736676335E-1,-3.628539443E-1
1.639372842E1,-1.074359298E0,-2.565633953E-1,-3.434589803E-1
1.640372842E1,-1.020908594E0,-2.163990140E-1,-3.144428730E-1
1.641372842E1,-9.443976879E-1,-1.713477075E-1,-2.878702581E-1
1.642372842E1,-8.495608568E-1,-1.588249654E-1,-2.663372457E-1
1.643372842E1,-7.438811660E-1,-1.863138974E-1,-2.470949888E-1
1.644372842E1,-5.357288122E-1,-3.040581644E-1,-1.672243625E-1
1.645372842E1,-4.419609904E-1,-3.810271919E-1,-1.087340117E-1
1.646372842E1,-3.712533414E-1,-4.544837475E-1,-7.360926270E-2
1.647372842E1,-3.092505336E-1,-5.002986193E-1,-6.032294407E-2
1.648372842E1,-2.425135076E-1,-5.181664228E-1,-5.681046844E-2
1.649372842E1,-1.551597714E-1,-4.792237878E-1,-5.971207842E-2
1.649372842E1,-1.551597714E-1,-4.792237878E-1,-5.971207842E-2
1.651372842E1,-1.832595766E-1,-2.941316068E-1,-4.520402849E-2
1.652372842E1,-1.879937798E-1,-2.710714638E-1,-2.321287990E-2
1.653372842E1,-2.060143054E-1,-3.341432810E-1,-1.572977938E-2
1.654372842E1,-2.278527319E-1,-4.056145251E-1,-1.435533352E-2
1.655372842E1,-2.047925740E-1,-4.503603876E-1,-3.756821156E-2
1.656372842E1,-2.280054539E-1,-4.805982411E-1,-5.451972410E-2
1.657372842E1,-2.825251818E-1,-4.989241958E-1,-5.665775016E-2
1.658372842E1,-3.310889602E-1,-4.555527568E-1,-5.299255997E-2
1.659372842E1,-3.262020350E-1,-3.066543639E-1,-8.093964309E-3
1.660372842E1,-3.174972236E-1,6.520986557E-2,9.987647086E-2
1.661372842E1,-3.940080702E-1,1.266018152E-1,9.025534242E-2
1.662372842E1,-4.685336351E-1,1.044579595E-1,7.635815535E-3
1.663372842E1,-5.030475259E-1,1.113301888E-1,-1.081231460E-1
1.664372842E1,-5.415320396E-1,1.615738571E-1,-2.570215464E-1
1.665372842E1,-6.224716902E-1,2.903137207E-1,-4.155410826E-1
1.666372842E1,-8.277224302E-1,5.432119370E-1,-6.104071140E-1
1.667372842E1,-9.001099467E-1,6.159048676E-1,-5.285511613E-1
1.668372842E1,-8.904888034E-1,6.904304624E-1,-2.712241709E-1
1.669372842E1,-7.307475209E-1,7.076873779E-1,1.015563458E-1
1.670372842E1,-4.485278130E-1,7.119634151E-1,4.630358517E-1
1.671372842E1,1.252273750E-2,5.258022547E-1,8.947648406E-1
1.672372842E1,3.481931984E-2,2.657263875E-1,9.182831645E-1
1.673372842E1,1.649336144E-2,1.878410578E-2,8.688030839E-1
1.674372842E1,3.924809024E-2,-2.748893574E-2,7.906123400E-1
1.675372842E1,7.620543987E-2,1.247692257E-1,6.731734872E-1
1.676372842E1,6.536258012E-2,3.541491330E-1,4.873177409E-1
1.677372842E1,-7.437284291E-2,4.492913783E-1,-6.566801574E-3
1.678372842E1,-1.382082552E-1,2.356412709E-1,-1.829541475E-1
1.679372842E1,-1.893682331E-1,-3.940080851E-2,-2.591595948E-1
1.680372842E1,-2.061670274E-1,-2.730567753E-1,-2.525927722E-1
1.681372842E1,-1.632537395E-1,-3.889684379E-1,-2.012801021E-1
1.682372842E1,-1.847867295E-2,-1.728748679E-1,-1.033889428E-1
1.683372842E1,-4.123340361E-3,5.222897977E-2,-1.014036313E-1
1.684372842E1,-3.207042580E-3,2.142609805E-1,-1.418734491E-1
1.685372842E1,4.001167417E-2,2.904664278E-1,-2.104430795E-1
1.686372842E1,1.233947799E-1,3.039054573E-1,-2.840523422E-1
1.687372842E1,2.165517360E-1,2.797762752E-1,-3.379611969E-1
1.688372842E1,3.610213697E-1,1.507309973E-1,-3.480404615E-1
1.689372842E1,4.111123085E-1,7.238753140E-2,-3.103195429E-1
1.690372842E1,4.589125216E-1,-9.621127509E-3,-2.469422817E-1
1.691372842E1,5.151121020E-1,-9.147707373E-2,-1.664607823E-1
1.692372842E1,5.739079118E-1,-1.600466967E-1,-9.086620808E-2
1.693372842E1,6.641632318E-1,-2.382374406E-1,-1.420261711E-2
1.694372842E1,6.774495840E-1,-2.649627924E-1,-3.375030309E-2
1.695372842E1,6.627888083E-1,-2.686280012E-1,-5.803219974E-2
1.696372842E1,6.323982477E-1,-2.506074607E-1,-6.169738993E-2
1.697372842E1,5.850561857E-1,-2.289217561E-1,-4.566217586E-2
1.698372842E1,5.122104883E-1,-1.879937798E-1,-3.695734590E-2
1.699372842E1,3.495676219E-1,-1.800525337E-1,-3.756821156E-2
1.700372842E1,2.791654170E-1,-2.443460971E-1,-3.970624134E-2
1.701372842E1,2.283108830E-1,-3.437644243E-1,-4.535674304E-2
1.702372842E1,2.101376504E-1,-4.297437072E-1,-5.619960278E-2
1.703372842E1,2.295326144E-1,-4.865541756E-1,-6.108652428E-2
1.704372842E1,3.219259977E-1,-4.862487316E-1,-3.573561832E-2
1.705372842E1,3.451388776E-1,-4.352414906E-1,-9.010262787E-3
1.706372842E1,3.367394805E-1,-3.613267839E-1,2.748893574E-2
1.707372842E1,3.065016270E-1,-2.887865305E-1,6.765332818E-2
1.708372842E1,2.835941911E-1,-2.632829249E-1,9.330966324E-2
1.709372842E1,2.909245789E-1,-2.742784917E-1,9.330966324E-2
1.710372842E1,3.585779071E-1,-2.377792895E-1,4.428773001E-2
1.711372842E1,3.497203588E-1,-1.145372316E-1,1.527163113E-4
1.712372842E1,2.849686444E-1,3.756821156E-2,-4.627304152E-2
1.713372842E1,1.875356287E-1,1.992947906E-1,-8.765916526E-2
1.714372842E1,1.131627858E-1,3.695734739E-1,-1.169806942E-1
1.715372842E1,1.388191283E-1,6.082690954E-1,-5.879577994E-2
1.716372842E1,2.252565622E-1,6.559165716E-1,1.038470957E-2
1.717372842E1,3.468187451E-1,6.490443349E-1,4.031710699E-2
1.718372842E1,4.572326243E-1,5.392413139E-1,3.512475174E-3
1.719372842E1,5.004513264E-1,4.289801121E-1,-1.014036313E-1
1.720372842E1,4.511239827E-1,3.775147200E-1,-2.499966025E-1
1.721372842E1,2.125810981E-1,5.294674635E-1,-6.166684628E-1
1.722372842E1,8.750644326E-2,6.688974500E-1,-8.287914395E-1
1.723372842E1,-2.275473066E-2,6.765332818E-1,-1.027322650E0
1.724372842E1,-1.093448773E-1,5.500841737E-1,-1.142623425E0
1.725372842E1,-1.966986060E-1,3.839288056E-1,-1.145677805E0
1.726372842E1,-3.820962012E-1,2.886338234E-1,-8.666650653E-1
1.727372842E1,-4.633412957E-1,3.604104817E-1,-6.139195561E-1
1.728372842E1,-5.251913667E-1,4.396702647E-1,-3.344487250E-1
1.729372842E1,-5.335907936E-1,5.227479339E-1,-6.108652428E-2
1.730372842E1,-4.511239827E-1,5.962044597E-1,1.824959964E-1
1.731372842E1,-3.251330256E-1,6.091853380E-1,3.625485301E-1
1.732372842E1,-1.615738571E-1,3.294090927E-1,4.967861474E-1
1.733372842E1,-1.493565589E-1,1.296561509E-1,4.775438905E-1
1.734372842E1,-1.397354305E-1,-3.130684420E-2,4.361577928E-1
1.735372842E1,-1.302670091E-1,-1.391245574E-1,3.790418804E-1
1.736372842E1,-1.305724531E-1,-1.780672222E-1,3.119994104E-1
1.737372842E1,-2.002110779E-1,-1.168279797E-1,2.095267773E-1
1.738372842E1,-2.623666227E-1,-9.056077152E-2,1.829541475E-1
1.739372842E1,-3.231477141E-1,-7.620543987E-2,1.574505121E-1
1.740372842E1,-3.694207668E-1,-7.162395120E-2,1.235474944E-1
1.741372842E1,-4.060726762E-1,-7.315111160E-2,7.483099401E-2
1.742372842E1,-4.512766898E-1,-8.674286306E-2,1.404990070E-2
1.743372842E1,-5.745187402E-1,-1.443169117E-1,-1.160643995E-1
1.744372842E1,-6.244570017E-1,-1.760819107E-1,-1.695151031E-1
1.745372842E1,-6.513350606E-1,-1.907426715E-1,-2.047925740E-1
1.746372842E1,-6.429356933E-1,-1.980730593E-1,-2.255619913E-1
1.747372842E1,-5.896376967E-1,-2.089159191E-1,-2.477058619E-1
1.748372842E1,-3.969096839E-1,-2.554943860E-1,-2.837468982E-1
1.749372842E1,-2.887865305E-1,-2.660318017E-1,-2.657263875E-1
1.750372842E1,-1.902845204E-1,-2.438879460E-1,-2.246456891E-1
1.751372842E1,-1.110247597E-1,-2.023491114E-1,-1.725694388E-1
1.752372842E1,-5.268712714E-2,-1.779145002E-1,-1.301143020E-1
1.753372842E1,-8.857546374E-3,-1.849394590E-1,-1.070541367E-1
1.754372842E1,2.290744707E-2,-2.017382532E-1,-8.399397135E-2
1.755372842E1,1.802052557E-2,-1.835650057E-1,-7.299839705E-2
1.756372842E1,7.024950348E-3,-1.508837193E-1,-7.910704613E-2
1.757372842E1,-2.825251780E-2,-1.195768714E-1,-1.046106741E-1
1.758372842E1,-1.012509167E-1,-1.368338168E-1,-1.421788931E-1
1.759372842E1,-2.858849466E-1,-3.371976018E-1,-1.960877478E-1
1.760372842E1,-3.089450896E-1,-4.243986309E-1,-1.982257664E-1
1.761372842E1,-2.869539559E-1,-4.303545654E-1,-1.751656085E-1
1.762372842E1,-2.454151064E-1,-3.514002264E-1,-1.229366288E-1
1.763372842E1,-2.438879460E-1,-2.229658216E-1,-4.627304152E-2
1.764372842E1,-2.994766831E-1,-4.749477282E-2,4.505131021E-2
1.765372842E1,-3.718642294E-1,3.072652221E-1,1.936442852E-1
1.766372842E1,-3.404046595E-1,3.291036487E-1,1.947132945E-1
1.767372842E1,-3.077233732E-1,2.396118939E-1,1.398881376E-1
1.768372842E1,-3.057380617E-1,1.547016203E-1,5.207626149E-2
1.769372842E1,-3.498730659E-1,9.010262042E-2,-5.742133409E-2
1.770372842E1,-5.389358401E-1,-3.802636266E-2,-2.567161322E-1
1.771372842E1,-6.081163287E-1,2.458732575E-2,-2.394591719E-1
1.772372842E1,-6.415612102E-1,4.306599870E-2,-1.282816976E-1
1.773372842E1,-5.933028460E-1,6.062837690E-2,3.619376570E-2
1.774372842E1,-4.712825418E-1,1.835650057E-1,2.064724565E-1
1.775372842E1,-3.200933933E-1,2.958115041E-1,3.558290005E-1
1.776372842E1,-1.098030284E-1,-6.719517522E-3,5.824599862E-1
1.777372842E1,-7.910704613E-2,-2.484694421E-1,6.365215778E-1
1.778372842E1,-3.634648025E-2,-2.626720667E-1,6.730207801E-1
1.779372842E1,2.672535367E-2,-5.314527452E-2,6.931793094E-1
1.780372842E1,7.116580009E-2,1.466076523E-1,6.597344875E-1
1.781372842E1,1.588249579E-2,3.039054573E-1,3.179553747E-1
1.782372842E1,-2.886338346E-2,3.141374588E-1,1.021672115E-1
1.783372842E1,-4.306599870E-2,3.039054573E-1,-7.849618047E-2
1.784372842E1,-1.221730490E-3,2.649627924E-1,-2.102903575E-1
1.785372842E1,9.193521738E-2,1.707368344E-1,-2.776382565E-1
1.786372842E1,2.086104751E-1,3.191770986E-2,-2.765692472E-1
1.787372842E1,3.718642294E-1,-1.718058437E-1,-1.878410578E-1
1.788372842E1,4.132503271E-1,-1.789835095E-1,-1.672243625E-1
1.789372842E1,4.544837475E-1,-1.267545372E-1,-1.600466967E-1
1.790372842E1,4.957171381E-1,-7.956519723E-2,-1.676825136E-1
1.791372842E1,5.381723046E-1,-7.696902007E-2,-1.824959964E-1
1.792372842E1,6.304129362E-1,-1.795943826E-1,-1.838704348E-1
1.793372842E1,6.742424965E-1,-2.254092693E-1,-1.667662114E-1
1.794372842E1,7.133378983E-1,-2.686280012E-1,-1.314887404E-1
1.795372842E1,7.452555895E-1,-3.156646192E-1,-7.544185966E-2
1.796372842E1,7.673994899E-1,-3.674354553E-1,-7.024950348E-3
1.797372842E1,7.860308290E-1,-4.034765065E-1,6.246097013E-2
1.798372842E1,8.035932183E-1,-4.334088862E-1,1.563815027E-1
1.799372842E1,7.599163651E-1,-4.190535545E-1,1.699732542E-1
1.800372842E1,6.870706677E-1,-3.743076921E-1,1.896736622E-1
1.801372842E1,5.900958180E-1,-2.996293902E-1,2.119702399E-1
1.802372842E1,4.905247986E-1,-2.454151064E-1,2.182316035E-1
1.803372842E1,3.993531466E-1,-2.105957866E-1,2.038762718E-1
1.804372842E1,3.993531466E-1,-2.105957866E-1,2.038762718E-1
1.804372842E1,2.568688393E-1,-1.968513280E-1,1.018617824E-1
1.806372842E1,1.679879427E-1,-2.553416789E-1,2.672535367E-2
1.807372842E1,1.582140923E-1,-3.243694305E-1,2.321287990E-2
1.808372842E1,1.936442852E-1,-3.908010423E-1,3.894266114E-2
1.809372842E1,3.553708494E-1,-3.634648323E-1,1.030835137E-1
1.810372842E1,4.210388660E-1,-2.675589919E-1,1.404990107E-1
1.811372842E1,4.502076805E-1,-1.282816976E-1,1.852448881E-1
1.812372842E1,4.612032473E-1,7.330383174E-3,2.118175179E-1
1.813372842E1,4.853324294E-1,6.062837690E-2,2.006692290E-1
1.814372842E1,5.204572082E-1,1.954768784E-2,1.713477075E-1
1.815372842E1,5.482515693E-1,-1.014036313E-1,1.372919679E-1
1.816372842E1,5.129740834E-1,-8.597928286E-2,1.117883399E-1
1.817372842E1,4.445571899E-1,-1.007927675E-2,5.818491429E-2
1.818372842E1,3.544545472E-1,1.056796908E-1,7.024950348E-3
1.819372842E1,2.863430977E-1,2.215913683E-1,1.069014193E-3
1.820372842E1,2.223549485E-1,3.414736688E-1,1.047633886E-1
1.821372842E1,2.530509233E-1,3.430008292E-1,1.705841124E-1
1.822372842E1,3.588833213E-1,3.567453027E-1,2.128865421E-1
1.823372842E1,5.215262175E-1,2.858849466E-1,2.087631971E-1
1.824372842E1,6.695083380E-1,1.033889428E-1,1.499674171E-1
1.825372842E1,7.612907887E-1,-6.108652451E-4,4.367686436E-2
1.826372842E1,6.989825368E-1,-6.597344577E-2,-2.977968156E-1
1.827372842E1,5.230533481E-1,5.757404864E-2,-5.108360648E-1
1.828372842E1,3.518583775E-1,3.130684495E-1,-7.119634151E-1
1.829372842E1,2.890919745E-1,5.461135507E-1,-8.268061280E-1
1.830372842E1,3.572034538E-1,6.565274000E-1,-7.857254148E-1
1.831372842E1,4.659374654E-1,6.421720982E-1,-4.017966092E-1
1.832372842E1,3.769038618E-1,6.035348773E-1,-2.622139156E-1
1.833372842E1,2.342668176E-1,5.610797405E-1,-1.481348276E-1
1.834372842E1,9.285151958E-2,5.065600276E-1,-3.161227703E-2
1.835372842E1,-1.084285788E-2,4.266893864E-1,8.842274547E-2
1.836372842E1,-6.352998316E-2,3.155119121E-1,1.999056488E-1
1.837372842E1,-6.994406879E-2,-4.108068720E-2,3.139847219E-1
1.838372842E1,-9.040805697E-2,-1.779145002E-1,3.069597781E-1
1.839372842E1,-1.681406647E-1,-2.544253767E-1,2.842050493E-1
1.840372842E1,-2.970332205E-1,-3.057380617E-1,2.528982162E-1
1.841372842E1,-4.051563740E-1,-3.086396754E-1,2.362521291E-1
1.842372842E1,-4.149302244E-1,-2.506074607E-1,2.203696370E-1
1.843372842E1,-3.820962012E-1,-2.831360400E-1,2.191479057E-1
1.844372842E1,-3.808744848E-1,-3.654501438E-1,2.252565622E-1
1.845372842E1,-4.219551682E-1,-4.610505402E-1,2.414444834E-1
1.846372842E1,-5.019785166E-1,-5.484042764E-1,2.492330223E-1
1.847372842E1,-5.942191482E-1,-6.201809645E-1,2.313652188E-1
1.848372842E1,-7.548767328E-1,-6.753115058E-1,1.282816976E-1
1.849372842E1,-8.122980595E-1,-6.649268270E-1,5.161811411E-2
1.850372842E1,-8.539896011E-1,-6.239988208E-1,-2.886338346E-2
1.851372842E1,-8.823948503E-1,-5.566509366E-1,-1.056796908E-1
1.852372842E1,-9.046914577E-1,-4.758640230E-1,-1.777617931E-1
1.853372842E1,-8.845328689E-1,-3.961461186E-1,-2.718350291E-1
1.854372842E1,-8.373435140E-1,-3.681990206E-1,-2.929098904E-1
1.855372842E1,-7.657195926E-1,-3.171917796E-1,-2.883284092E-1
1.856372842E1,-6.710354686E-1,-2.587014437E-1,-2.692388594E-1
1.857372842E1,-5.581781268E-1,-2.087631971E-1,-2.489275932E-1
1.858372842E1,-4.415028691E-1,-1.562287807E-1,-2.275473028E-1
1.859372842E1,-2.981022298E-1,-1.375973970E-1,-1.853975952E-1
1.860372842E1,-2.748893499E-1,-1.821905524E-1,-1.707368344E-1
1.861372842E1,-2.638937831E-1,-2.087631971E-1,-1.585195363E-1
1.862372842E1,-2.675589919E-1,-2.063197345E-1,-1.511891484E-1
1.863372842E1,-2.808452845E-1,-1.701259762E-1,-1.463022232E-1
1.864372842E1,-3.393356502E-1,-1.643227488E-1,-1.852448881E-1
1.865372842E1,-4.100432992E-1,-1.621847153E-1,-2.240348309E-1
1.866372842E1,-4.926628172E-1,-1.432479024E-1,-2.616030276E-1
1.867372842E1,-5.219843388E-1,-1.507309973E-1,-2.871066630E-1
1.868372842E1,-4.842634201E-1,-2.002110779E-1,-2.834414840E-1
1.869372842E1,-4.172209501E-1,-2.336559594E-1,-2.336559594E-1
1.870372842E1,-3.798054755E-1,-5.268712714E-2,-9.468411095E-3
1.871372842E1,-3.938553631E-1,1.291979998E-1,1.293507218E-1
1.872372842E1,-3.765984178E-1,3.327688277E-1,2.131919712E-1
1.873372842E1,-3.150537610E-1,4.973970354E-1,1.956295967E-1
1.874372842E1,-2.730567753E-1,5.977316499E-1,1.036943719E-1
1.875372842E1,-4.619668424E-1,3.921754956E-1,-7.712173462E-2
1.876372842E1,-5.453499556E-1,4.030183554E-1,-8.399397135E-3
1.877372842E1,-5.019785166E-1,4.557054639E-1,1.670716405E-1
1.878372842E1,-3.346014321E-1,3.526219726E-1,3.764457107E-1
1.879372842E1,-1.476766765E-1,5.009094998E-2,5.618433356E-1
1.880372842E1,-5.070181563E-2,-2.493857294E-1,7.168503404E-1
1.881372842E1,-2.345722616E-1,-2.794708498E-2,8.892670870E-1
1.882372842E1,-3.649919927E-1,3.381139040E-1,8.330674767E-1
1.883372842E1,-3.437644243E-1,5.871942043E-1,7.470881939E-1
1.884372842E1,-2.157881409E-1,6.756169796E-1,6.427829266E-1
1.885372842E1,-1.059851199E-1,6.320928335E-1,5.131267905E-1
1.886372842E1,-9.880745411E-2,4.170682430E-1,2.156354338E-1
1.886372842E1,-9.880745411E-2,4.170682430E-1,2.156354338E-1
1.888372842E1,-1.800525337E-1,3.048217595E-1,-2.306016348E-2
1.889372842E1,-1.426370293E-1,2.927571833E-1,-8.659014851E-2
1.890372842E1,-4.688390717E-2,2.614503205E-1,-1.113301888E-1
1.891372842E1,6.841690838E-2,1.892155111E-1,-1.275181174E-1
1.892372842E1,2.260201424E-1,1.985311974E-3,-1.887573600E-1
1.893372842E1,2.635883391E-1,-9.239336848E-2,-2.241875380E-1
1.894372842E1,3.023782969E-1,-1.589776874E-1,-2.570215464E-1
1.895372842E1,3.775147200E-1,-1.890627891E-1,-2.793181241E-1
1.896372842E1,4.805982411E-1,-2.118175179E-1,-2.955060601E-1
1.897372842E1,6.615670323E-1,-2.813034356E-1,-2.802344263E-1
1.898372842E1,7.116580009E-1,-3.283400834E-1,-2.315179259E-1
1.899372842E1,7.386888266E-1,-3.678936064E-1,-1.655444801E-1
1.900372842E1,7.499898076E-1,-3.859141171E-1,-9.850201756E-2
1.901372842E1,7.527387142E-1,-3.796527386E-1,-3.023782931E-2
1.902372842E1,7.434229851E-1,-3.698789179E-1,2.840523422E-2
1.903372842E1,6.876815557E-1,-3.517056704E-1,6.643159688E-2
1.904372842E1,6.682865620E-1,-3.336851299E-1,6.887505949E-2
1.905372842E1,6.415612102E-1,-3.083342314E-1,7.376197726E-2
1.906372842E1,5.870414972E-1,-2.635883391E-1,8.979719132E-2
1.907372842E1,5.070181489E-1,-2.299907655E-1,1.084285825E-1
1.908372842E1,3.321579695E-1,-1.711949855E-1,1.308778822E-1
1.909372842E1,2.507601976E-1,-1.484402567E-1,1.177442744E-1
1.910372842E1,1.669189334E-1,-1.293507218E-1,9.605856240E-2
1.911372842E1,9.514226019E-2,-1.284344196E-1,7.437284291E-2
1.912372842E1,5.864306539E-2,-1.359175146E-1,5.375614017E-2
1.913372842E1,6.704246253E-2,-1.443169117E-1,2.687807009E-2
1.914372842E1,1.104138941E-1,-2.580905706E-2,-3.451388702E-2
1.915372842E1,1.200350225E-1,6.261368841E-2,-1.878410578E-2
1.916372842E1,1.238529310E-1,1.569923609E-1,1.634064503E-2
1.917372842E1,1.336267740E-1,1.910481006E-1,5.772676691E-2
1.918372842E1,1.765400618E-1,9.575312585E-2,1.004873365E-1
1.919372842E1,3.174972236E-1,-5.513058975E-2,1.075122803E-1
1.920372842E1,2.907718420E-1,-1.511891466E-2,1.160643995E-1
1.921372842E1,1.779145002E-1,-9.162978968E-4,1.360702366E-1
1.922372842E1,9.300423414E-2,-2.306016348E-2,1.180497110E-1
1.923372842E1,7.544185966E-2,4.444044828E-2,2.290744707E-2
1.924372842E1,8.414668590E-2,2.122756690E-1,-1.262963861E-1
1.925372842E1,5.711590126E-2,5.381723046E-1,-3.878994286E-1
1.926372842E1,6.643159688E-2,4.495968223E-1,-4.647157490E-1
1.927372842E1,1.099557430E-1,2.122756690E-1,-5.572618246E-1
1.928372842E1,1.411098689E-1,2.932153270E-2,-6.667594314E-1
1.929372842E1,9.575312585E-2,1.206458826E-2,-7.690793276E-1
1.930372842E1,-1.088867337E-1,1.876883507E-1,-8.834638596E-1
1.931372842E1,-4.596760869E-2,2.532036304E-1,-9.008735418E-1
1.932372842E1,1.594358236E-1,3.121521473E-1,-8.480336666E-1
1.933372842E1,3.700316250E-1,3.675881624E-1,-7.047857642E-1
1.934372842E1,4.547891617E-1,4.143193662E-1,-5.074763298E-1
1.935372842E1,3.888157308E-1,4.703662395E-1,-3.158173263E-1
1.936372842E1,1.846340150E-1,5.984952450E-1,-1.237002090E-1
1.937372842E1,1.737911552E-1,5.731443167E-1,-1.076650023E-1
1.938372842E1,1.849394590E-1,4.873177409E-1,-7.345654815E-2
1.939372842E1,1.733330190E-1,3.338378668E-1,-1.221730490E-3
1.940372842E1,1.459967941E-1,1.814269722E-1,8.093964309E-2
1.941372842E1,3.481931984E-2,7.131851465E-2,1.754710376E-1
1.942372842E1,-7.544185966E-2,5.177082866E-2,2.150245607E-1
1.943372842E1,-1.928807050E-1,3.222314268E-2,2.690861523E-1
1.944372842E1,-2.822197378E-1,2.000583708E-2,3.353650272E-1
1.945372842E1,-3.342960179E-1,2.718350291E-2,3.868304193E-1
1.946372842E1,-3.596469164E-1,3.802636266E-2,4.063780904E-1
1.947372842E1,-4.363104999E-1,7.483099122E-3,3.726277947E-1
1.948372842E1,-5.019785166E-1,-4.123340547E-2,3.387247920E-1
1.949372842E1,-5.676465034E-1,-9.712757170E-2,2.974913716E-1
1.950372842E1,-6.249151230E-1,-1.434006095E-1,2.490803003E-1
1.951372842E1,-6.627888083E-1,-1.763873398E-1,1.930334121E-1
1.952372842E1,-6.937901974E-1,-1.696678251E-1,5.406157300E-2
1.953372842E1,-7.148650289E-1,-1.432479024E-1,-1.664607786E-2
1.954372842E1,-7.382306457E-1,-1.204931661E-1,-7.269296050E-2
1.955372842E1,-7.493789196E-1,-8.796459436E-2,-1.069014147E-1
1.956372842E1,-7.409795523E-1,-5.772676691E-2,-1.314887404E-1
1.957372842E1,-7.107416987E-1,-5.650503561E-2,-1.583668143E-1
1.958372842E1,-7.107416987E-1,-5.650503561E-2,-1.583668143E-1
1.959372842E1,-5.215262175E-1,-1.177442744E-1,-1.919644028E-1
1.960372842E1,-4.352414906E-1,-8.720101416E-2,-1.824959964E-1
1.961372842E1,-3.454442918E-1,-5.543602258E-2,-1.695151031E-1
1.962372842E1,-2.605340183E-1,-3.207042441E-2,-1.588249654E-1
1.963372842E1,-1.146899462E-1,-2.199114859E-2,-1.288925707E-1
1.964372842E1,-6.597344577E-2,-3.145955876E-2,-1.082758680E-1
1.965372842E1,-2.947424725E-2,-3.848451003E-2,-8.032877743E-2
1.966372842E1,-1.374446787E-3,-3.466660157E-2,-6.337726861E-2
1.967372842E1,1.802052557E-2,-3.833179548E-2,-5.742133409E-2
1.968372842E1,2.901609987E-2,-6.841690838E-2,-5.131268129E-2
1.969372842E1,-7.391469181E-2,-1.849394590E-1,-2.382374369E-2
1.970372842E1,-1.563815027E-1,-1.656972021E-1,-1.374446787E-2
1.971372842E1,-1.589776874E-1,-8.475755155E-2,-2.122756653E-2
1.972372842E1,-5.345070735E-2,-1.664607786E-2,-1.069014147E-2
1.973372842E1,6.811147183E-2,3.222314268E-2,2.046398632E-2
1.974372842E1,-1.970040426E-2,8.933904022E-2,1.878410578E-1
1.975372842E1,-1.404990107E-1,2.394591719E-1,3.320052624E-1
1.976372842E1,-1.547016203E-1,4.598288238E-1,4.329507351E-1
1.977372842E1,-1.050688252E-1,6.088799238E-1,4.277583957E-1
1.978372842E1,-7.254024595E-2,5.603161454E-1,3.703370690E-1
1.979372842E1,-6.643159688E-2,3.946189582E-1,3.694207668E-1
1.980372842E1,1.168279797E-1,4.369213581E-1,6.163630486E-1
1.981372842E1,2.912299931E-1,5.033529401E-1,7.864890099E-1
1.982372842E1,3.585779071E-1,5.329799056E-1,9.204211831E-1
1.983372842E1,2.521346211E-1,5.461135507E-1,9.793697000E-1
1.984372842E1,4.444044828E-2,4.642575979E-1,9.521862268E-1
1.985372842E1,-2.295326144E-1,2.112066597E-1,7.144069076E-1
1.986372842E1,-2.330450863E-1,2.663372457E-1,5.239696503E-1
1.987372842E1,-1.989893466E-1,4.268420935E-1,3.258966208E-1
1.988372842E1,-1.841758788E-1,5.618433356E-1,1.559233516E-1
1.989372842E1,-2.067778856E-1,6.352998614E-1,2.412917651E-2
1.990372842E1,-2.594650090E-1,6.565274000E-1,-7.330382615E-2
1.991372842E1,-3.535382748E-1,6.136141419E-1,-2.229658216E-1
1.992372842E1,-3.136793077E-1,5.409211516E-1,-2.718350291E-1
1.993372842E1,-2.191479057E-1,4.286746979E-1,-2.976440787E-1
1.994372842E1,-1.169806942E-1,2.788599730E-1,-3.063489199E-1
1.995372842E1,-3.680463135E-2,1.533271819E-1,-3.014619946E-1
1.996372842E1,3.008511290E-2,4.581489414E-2,-2.967278063E-1
1.997372842E1,5.070181563E-2,-1.588249579E-2,-3.199406862E-1
1.998372842E1,9.300423414E-2,-7.269296050E-2,-3.565925956E-1
1.999372842E1,1.534798890E-1,-1.017090604E-1,-3.956879675E-1
2.000372842E1,2.116648108E-1,-1.149953827E-1,-4.179845452E-1
2.001372842E1,2.577851415E-1,-1.316414624E-1,-4.118759036E-1
2.002372842E1,3.358231783E-1,-2.293798923E-1,-3.620903790E-1
2.003372842E1,3.785837293E-1,-2.848159075E-1,-3.278819323E-1
2.004372842E1,4.164573848E-1,-3.257438838E-1,-2.889392674E-1
2.005372842E1,4.433354437E-1,-3.546072841E-1,-2.512183189E-1
2.006372842E1,4.605923891E-1,-3.665191531E-1,-2.035708427E-1
2.007372842E1,4.477642179E-1,-4.072943926E-1,-9.972374886E-2
2.008372842E1,4.175263941E-1,-4.207334518E-1,-8.139779419E-2
2.009372842E1,3.837760985E-1,-4.037819207E-1,-5.192354694E-2
2.010372842E1,3.488040566E-1,-3.759875596E-1,-6.108652451E-4
2.011372842E1,3.026837409E-1,-3.118467033E-1,3.359758854E-2
2.012372842E1,2.518292069E-1,-2.515237629E-1,4.948008433E-2
2.013372842E1,1.583668143E-1,-1.826487035E-1,7.544185966E-2
2.014372842E1,1.232420653E-1,-1.875356287E-1,9.743300825E-2
2.015372842E1,1.101084575E-1,-2.093740702E-1,1.207986027E-1
2.016372842E1,1.272126883E-1,-2.212859392E-1,1.401935667E-1
2.017372842E1,1.637118906E-1,-1.933388561E-1,1.656972021E-1
2.018372842E1,2.393064648E-1,-1.408044398E-1,2.446515262E-1
2.019372842E1,2.735149264E-1,-1.466076523E-1,2.921462953E-1
2.020372842E1,3.174972236E-1,-1.803579628E-1,3.286454976E-1
2.021372842E1,3.698789179E-1,-2.490803003E-1,3.492622077E-1
2.022372842E1,4.014911950E-1,-3.384193480E-1,3.590360582E-1
2.023372842E1,4.004221559E-1,-3.966042697E-1,3.701843321E-1
2.024372842E1,3.524692357E-1,-2.855795026E-1,2.628247738E-1
2.025372842E1,3.382666409E-1,-1.056796908E-1,1.429424733E-1
2.026372842E1,3.436116874E-1,8.032877743E-2,1.450804994E-2
2.027372842E1,3.585779071E-1,2.373211533E-1,-1.127046347E-1
2.028372842E1,3.420845270E-1,3.663664162E-1,-2.165517360E-1
2.029372842E1,2.919935882E-1,4.410447180E-1,-2.750420868E-1
2.030372842E1,2.603813112E-1,3.683517575E-1,-2.919935882E-1
2.031372842E1,2.738203406E-1,1.916589737E-1,-3.197879493E-1
2.032372842E1,2.335032374E-1,7.757988572E-2,-3.987422884E-1
2.033372842E1,1.626428664E-1,5.528330430E-2,-4.864014387E-1
2.034372842E1,8.674286306E-2,3.054326214E-2,-6.130032539E-1
2.035372842E1,1.206458881E-1,-6.933320314E-2,-9.008735418E-1
2.036372842E1,2.232712507E-1,-5.467243865E-2,-9.818131924E-1
2.037372842E1,3.216205537E-1,-2.779436857E-2,-9.712757468E-1
2.038372842E1,3.452915847E-1,1.130100712E-2,-8.604037166E-1
2.039372842E1,2.489275932E-1,7.559457421E-2,-7.063129544E-1
2.040372842E1,9.407325089E-2,2.073887438E-1,-5.619960427E-1
2.041372842E1,-8.246680722E-3,4.338670373E-1,-3.704897761E-1
2.042372842E1,3.344487399E-2,3.652974069E-1,-2.837468982E-1
2.043372842E1,7.437284291E-2,2.495384514E-1,-1.531744599E-1
2.044372842E1,9.941831976E-2,1.206458881E-1,-5.497787148E-3
2.045372842E1,9.407325089E-2,9.621127509E-3,1.204931661E-1
2.046372842E1,-9.315694869E-2,-1.091921628E-1,2.567161322E-1
2.047372842E1,-2.119702399E-1,-9.850201756E-2,2.938261926E-1
2.048372842E1,-2.846632004E-1,-6.230825558E-2,3.220787048E-1
2.049372842E1,-2.979495227E-1,-5.268712714E-2,3.391829133E-1
2.050372842E1,-2.895501256E-1,-6.719517708E-2,3.367394805E-1
2.051372842E1,-2.932153046E-1,-1.072068512E-1,3.161227703E-1
2.052372842E1,-3.759875596E-1,-2.225076705E-1,2.483167201E-1
2.053372842E1,-4.343251884E-1,-2.796235681E-1,2.144137025E-1
2.053372842E1,-4.343251884E-1,-2.796235681E-1,2.144137025E-1
2.055372842E1,-5.390886068E-1,-3.443752825E-1,1.246165112E-1
2.056372842E1,-5.612324476E-1,-3.506366611E-1,7.223481685E-2
2.057372842E1,-5.726861954E-1,-3.740022480E-1,-3.390302137E-2
2.058372842E1,-5.815436840E-1,-3.923282027E-1,-9.483683109E-2
2.059372842E1,-5.949827433E-1,-3.900374472E-1,-1.362229437E-1
2.060372842E1,-5.975789428E-1,-3.671300113E-1,-1.571450830E-1
2.061372842E1,-5.734497309E-1,-3.561344445E-1,-1.669189334E-1
2.062372842E1,-5.285511613E-1,-3.549126983E-1,-1.707368344E-1
2.063372842E1,-4.326453209E-1,-3.533855379E-1,-1.675297916E-1
2.064372842E1,-3.949243724E-1,-3.434589803E-1,-1.591303945E-1
2.065372842E1,-3.547599912E-1,-3.312416673E-1,-1.446223408E-1
2.066372842E1,-3.086396754E-1,-3.116939962E-1,-1.288925707E-1
2.067372842E1,-2.600758672E-1,-2.849686444E-1,-1.133155003E-1
2.068372842E1,-2.052507252E-1,-3.149010241E-1,-8.536841720E-2
2.069372842E1,-2.148718536E-1,-3.379611969E-1,-7.437284291E-2
2.070372842E1,-2.318233550E-1,-3.428481221E-1,-8.277224004E-2
2.071372842E1,-2.417499274E-1,-3.248275816E-1,-1.096503139E-1
2.072372842E1,-2.565633953E-1,-2.886338234E-1,-1.548543423E-1
2.073372842E1,-3.078760803E-1,-2.599231601E-1,-2.058615834E-1
2.074372842E1,-4.392121136E-1,-1.962404549E-1,-2.493857294E-1
2.075372842E1,-4.063780904E-1,-1.828014255E-1,-2.495384514E-1
2.076372842E1,-3.335324228E-1,-2.163990140E-1,-2.254092693E-1
2.077372842E1,-2.881756723E-1,-2.185370475E-1,-1.656972021E-1
2.078372842E1,-2.938261926E-1,-1.493565589E-1,-6.704246253E-2
2.079372842E1,-3.523165286E-1,1.985312104E-1,1.962404549E-1
2.080372842E1,-3.132211566E-1,3.730859458E-1,2.725986242E-1
2.081372842E1,-2.368630022E-1,4.628831446E-1,2.784018219E-1
2.082372842E1,-1.884519309E-1,4.557054639E-1,2.525927722E-1
2.083372842E1,-2.052507252E-1,3.031418920E-1,2.431243658E-1
2.084372842E1,-2.269364446E-1,1.166752651E-1,2.654209435E-1
2.085372842E1,-1.588249579E-2,2.645046413E-1,4.987714589E-1
2.086372842E1,1.826487035E-1,3.816380501E-1,6.637051105E-1
2.087372842E1,2.671008408E-1,4.741841555E-1,7.962628603E-1
2.088372842E1,1.617265791E-1,5.383250117E-1,8.698720932E-1
2.089372842E1,-7.009678334E-2,5.412266254E-1,8.633053303E-1
2.090372842E1,-4.631885588E-1,4.147774875E-1,6.453791261E-1
2.091372842E1,-4.590652287E-1,4.312708676E-1,5.013676286E-1
2.092372842E1,-3.709479272E-1,4.747950137E-1,4.008803070E-1
2.093372842E1,-3.301726580E-1,5.001459122E-1,3.164281845E-1
2.094372842E1,-3.657555580E-1,4.622722864E-1,2.299907655E-1
2.095372842E1,-3.976732790E-1,3.869831264E-1,1.508837193E-1
2.096372842E1,-3.304781020E-1,2.874121070E-1,-2.977968007E-2
2.097372842E1,-2.617557645E-1,2.777909636E-1,-1.203404516E-1
2.098372842E1,-1.820378453E-1,2.426662147E-1,-1.913535446E-1
2.099372842E1,-9.117163718E-2,1.666134894E-1,-2.391537428E-1
2.100372842E1,1.069014193E-3,8.200865984E-2,-2.747366428E-1
2.101372842E1,1.149953827E-1,4.367686436E-2,-3.080287874E-1
2.102372842E1,1.453859210E-1,3.527746722E-2,-3.116939962E-1
2.103372842E1,2.011273801E-1,-5.803219974E-3,-3.203988075E-1
2.104372842E1,2.909245789E-1,-4.184427112E-2,-3.255911767E-1
2.105372842E1,3.953825235E-1,-7.422012836E-2,-3.320052624E-1
2.106372842E1,4.949535728E-1,-9.086620808E-2,-3.225368559E-1
2.107372842E1,4.949535728E-1,-9.086620808E-2,-3.225368559E-1
2.108372842E1,7.272350788E-1,-1.733330190E-1,-2.318233550E-1
2.109372842E1,7.651087046E-1,-1.695151031E-1,-1.831068546E-1
2.110372842E1,7.860308290E-1,-1.655444801E-1,-1.246165112E-1
2.111372842E1,7.889324427E-1,-1.823432744E-1,-5.131268129E-2
2.112372842E1,7.362453341E-1,-2.667953968E-1,8.567385375E-2
2.113372842E1,7.050912380E-1,-2.353358418E-1,1.504255682E-1
2.114372842E1,6.699664593E-1,-1.481348276E-1,2.052507252E-1
2.115372842E1,6.191119552E-1,-3.558290005E-2,2.467895597E-1
2.116372842E1,5.464189649E-1,4.535674304E-2,2.724458873E-1
2.117372842E1,4.444044530E-1,7.284568250E-2,2.776382565E-1
2.118372842E1,2.038762718E-1,-1.878410578E-2,2.275473028E-1
2.119372842E1,1.102611795E-1,-8.323039114E-2,1.876883507E-1
2.120372842E1,5.665775016E-2,-1.429424733E-1,1.317941695E-1
2.121372842E1,3.084869497E-2,-1.759291887E-1,5.635231733E-2
2.122372842E1,2.199114859E-2,-1.942551434E-1,-3.359758761E-3
2.123372842E1,3.817907767E-3,-2.099849284E-1,-4.581489135E-3
2.124372842E1,9.010262787E-3,-2.425135076E-1,3.940080851E-2
2.125372842E1,4.321871698E-2,-3.063489199E-1,8.827003092E-2
2.126372842E1,9.697485715E-2,-4.017966092E-1,1.174388453E-1
2.127372842E1,1.540907621E-1,-4.911356568E-1,1.284344196E-1
2.128372842E1,1.879937798E-1,-5.007568002E-1,1.270599663E-1
2.129372842E1,1.447750628E-1,-1.864666194E-1,1.084285788E-2
2.130372842E1,1.160643995E-1,6.352998316E-2,-1.055269688E-1
2.131372842E1,1.249219403E-1,2.930625975E-1,-2.266310006E-1
2.132372842E1,1.716531366E-1,4.587597847E-1,-3.089450896E-1
2.133372842E1,2.199114859E-1,5.338962078E-1,-3.408628106E-1
2.134372842E1,2.869539559E-1,3.272710443E-1,-3.225368559E-1
2.135372842E1,3.208569586E-1,1.238529310E-1,-3.808744848E-1
2.136372842E1,3.593414724E-1,8.261952549E-2,-4.602869749E-1
2.137372842E1,3.770565689E-1,2.409863323E-1,-5.435173512E-1
2.138372842E1,3.203988075E-1,3.275764883E-1,-6.679811478E-1
2.139372842E1,2.104430795E-1,2.444988191E-1,-8.297077417E-1
2.140372842E1,7.864890248E-2,1.601994038E-1,-9.938777685E-1
2.141372842E1,1.385136992E-1,2.186897546E-1,-9.039278626E-1
2.142372842E1,1.939497143E-1,3.052799106E-1,-7.406741381E-1
2.143372842E1,1.776090711E-1,4.156937897E-1,-5.797111392E-1
2.144372842E1,9.315694869E-2,5.041165352E-1,-4.538728893E-1
2.145372842E1,-1.505782902E-1,4.714352489E-1,-1.893682331E-1
2.146372842E1,-1.838704348E-1,3.628539443E-1,-5.115996301E-2
2.147372842E1,-1.430951804E-1,2.193006277E-1,6.001751125E-2
2.148372842E1,-8.552113175E-2,6.230825558E-2,1.380555481E-1
2.149372842E1,-6.811147183E-2,-5.971207842E-2,1.870774776E-1
2.150372842E1,-1.298088580E-1,-1.130100712E-1,2.081523389E-1
2.151372842E1,-3.544545472E-1,-4.108068720E-2,2.038762718E-1
2.152372842E1,-3.752239645E-1,1.221730490E-3,1.977676302E-1
2.153372842E1,-3.521638215E-1,1.221730490E-3,1.892155111E-1
2.154372842E1,-3.411682248E-1,-2.901609987E-2,1.916589737E-1
2.155372842E1,-3.593414724E-1,-6.536258012E-2,2.162462920E-1
2.156372842E1,-4.634940028E-1,-1.212567538E-1,2.435825169E-1
2.157372842E1,-5.326744914E-1,-1.577559561E-1,2.243402600E-1
2.158372842E1,-5.983424783E-1,-1.956295967E-1,1.916589737E-1
2.159372842E1,-6.472117305E-1,-2.176207453E-1,1.479821056E-1
2.160372842E1,-6.826419234E-1,-2.251038402E-1,1.017090604E-1
2.161372842E1,-6.962336898E-1,-2.301434875E-1,4.566217586E-2
2.162372842E1,-6.882924438E-1,-2.086104751E-1,-7.773260027E-2
2.163372842E1,-6.824892163E-1,-1.977676302E-1,-1.033889428E-1
2.164372842E1,-6.716463566E-1,-1.821905524E-1,-1.327104717E-1
2.165372842E1,-6.256787181E-1,-1.844813079E-1,-1.609629989E-1
2.166372842E1,-5.601634383E-1,-2.278527319E-1,-1.684460938E-1
2.167372842E1,-4.262312353E-1,-3.544545472E-1,-1.211040318E-1
2.168372842E1,-3.495676219E-1,-4.279111028E-1,-9.926560521E-2
2.169372842E1,-2.755002379E-1,-4.857905805E-1,-8.842274547E-2
2.170372842E1,-2.134974003E-1,-5.158756971E-1,-9.117163718E-2
2.171372842E1,-1.675297916E-1,-5.363397002E-1,-1.033889428E-1
2.172372842E1,-1.408044398E-1,-5.604688525E-1,-1.157589629E-1
2.173372842E1,-1.566869318E-1,-5.920811296E-1,-1.473712474E-1
2.174372842E1,-1.507309973E-1,-5.122104883E-1,-1.426370293E-1
2.175372842E1,-1.168279797E-1,-3.970624208E-1,-1.295034289E-1
2.176372842E1,-9.132435173E-2,-2.965750694E-1,-1.322523206E-1
2.177372842E1,-1.120937690E-1,-2.554943860E-1,-1.504255682E-1
2.178372842E1,-3.222314119E-1,-2.768746614E-1,-1.838704348E-1
2.179372842E1,-3.721696436E-1,-2.357939780E-1,-1.971567571E-1
2.180372842E1,-3.382666409E-1,-2.151772827E-1,-2.034181207E-1
2.181372842E1,-2.932153046E-1,-2.368630022E-1,-1.815796942E-1
2.182372842E1,-2.845104933E-1,-2.232712507E-1,-1.389718503E-1
2.183372842E1,-2.950479090E-1,-1.311833113E-1,-6.704246253E-2
2.184372842E1,-2.547308207E-1,2.600758672E-1,7.987063378E-2
2.185372842E1,-1.808161139E-1,4.103487432E-1,7.559457421E-2
2.186372842E1,-1.421788931E-1,4.673119187E-1,3.145955876E-2
2.187372842E1,-1.846340150E-1,3.738495409E-1,1.343903504E-2
2.188372842E1,-2.244929820E-1,2.941316068E-1,5.894849449E-2
2.189372842E1,-4.291328415E-2,4.602869749E-1,4.570799172E-1
2.190372842E1,1.915062517E-1,3.940080702E-1,7.345654368E-1
2.191372842E1,4.040873647E-1,2.258674204E-1,9.779952765E-1
2.192372842E1,4.877758920E-1,1.970040426E-2,1.170875907E0
2.193372842E1,3.791945875E-1,-1.157589629E-1,1.270294309E0
2.194372842E1,1.495092660E-1,-5.253441259E-2,1.208902359E0
2.195372842E1,1.985311974E-3,3.225368559E-1,9.219483733E-1
2.196372842E1,1.153008118E-1,4.483750761E-1,7.834346890E-1
2.197372842E1,2.092213482E-1,4.784601927E-1,6.488916278E-1
2.198372842E1,2.218967974E-1,3.776674271E-1,5.025894046E-1
2.199372842E1,1.739438772E-1,2.125810981E-1,3.407101035E-1
2.200372842E1,1.339322031E-1,2.535090782E-2,8.491026610E-2
2.201372842E1,2.054034323E-1,-3.863722831E-2,2.855795063E-2
2.202372842E1,3.025310040E-1,-8.918632567E-2,2.351831272E-2
2.203372842E1,3.865249753E-1,-1.409571618E-1,5.619960278E-2
2.204372842E1,4.243986309E-1,-1.818851233E-1,1.000291854E-1
2.205372842E1,4.353941977E-1,-2.021963894E-1,1.330159009E-1
2.206372842E1,5.407684445E-1,-1.754710376E-1,8.246681094E-2
2.207372842E1,6.556110978E-1,-1.209513173E-1,3.970623948E-3
2.208372842E1,7.886270285E-1,-3.237585723E-2,-6.872233748E-2
2.209372842E1,8.856018782E-1,9.010262787E-3,-1.142318025E-1
2.210372842E1,9.413433671E-1,1.511891466E-2,-1.194241568E-1
2.211372842E1,9.950994849E-1,-2.687807009E-2,-5.115996301E-2
2.212372842E1,1.018465042E0,-5.803219974E-2,-1.221730490E-3
2.213372842E1,1.047939301E0,-8.445212245E-2,5.375614017E-2
2.214372842E1,1.071304917E0,-1.012509167E-1,1.122464910E-1
2.215372842E1,1.077566266E0,-1.385136992E-1,1.623374373E-1
2.216372842E1,1.068097830E0,-1.977676302E-1,1.953241676E-1
2.217372842E1,9.918924570E-1,-2.716823220E-1,2.202169150E-1
2.218372842E1,9.190467596E-1,-2.732094824E-1,2.142609805E-1
2.219372842E1,8.278751373E-1,-2.637410760E-1,2.049452960E-1
2.220372842E1,7.356344461E-1,-2.544253767E-1,1.979203373E-1
2.221372842E1,6.433938146E-1,-2.571742535E-1,1.908953935E-1
2.222372842E1,6.433938146E-1,-2.571742535E-1,1.908953935E-1
2.223372842E1,3.897320330E-1,-3.074179292E-1,2.028072625E-1
2.224372842E1,3.423899710E-1,-3.016147017E-1,1.957823038E-1
2.225372842E1,3.203988075E-1,-2.738203406E-1,1.860084683E-1
2.226372842E1,2.996293902E-1,-2.292271852E-1,1.615738571E-1
2.227372842E1,2.521346211E-1,-1.678352207E-1,1.189660057E-1
2.228372842E1,1.230893433E-1,-7.757988572E-2,6.551529467E-2
2.229372842E1,8.170322329E-2,-8.628471941E-2,3.894266114E-2
2.230372842E1,7.422012836E-2,-1.214094684E-1,1.206458826E-2
2.231372842E1,8.872817457E-2,-1.516472995E-1,-8.552113548E-3
2.232372842E1,9.239336848E-2,-1.649336219E-1,-1.954768784E-2
2.233372842E1,1.572977938E-2,-1.278235465E-1,-5.360342562E-2
2.234372842E1,-2.947424725E-2,-8.445212245E-2,-8.399397135E-2
2.235372842E1,-4.184427112E-2,-1.679879427E-2,-1.169806942E-1
2.236372842E1,-1.771509275E-2,6.780604273E-2,-1.464549452E-1
2.237372842E1,1.007927675E-2,1.368338168E-1,-1.637118906E-1
2.238372842E1,2.565634064E-2,1.719585657E-1,-1.736384481E-1
2.239372842E1,7.880161703E-2,5.940664560E-2,-2.530509233E-1
2.240372842E1,1.099557430E-1,-4.245513305E-2,-3.529273868E-1
2.241372842E1,1.142318025E-1,-2.458732575E-2,-4.763221741E-1
2.242372842E1,6.246097013E-2,1.212567538E-1,-6.093381047E-1
2.243372842E1,-9.926560335E-3,3.216205537E-1,-7.313584089E-1
2.244372842E1,-4.825835302E-2,5.099197626E-1,-8.231409192E-1
2.245372842E1,9.254608303E-2,5.575672388E-1,-8.139779568E-1
2.246372842E1,1.989893466E-1,4.300491214E-1,-6.652322412E-1
2.247372842E1,2.353358418E-1,2.588541508E-1,-4.723515511E-1
2.248372842E1,1.913535446E-1,1.600466967E-1,-2.974913716E-1
2.249372842E1,1.337794960E-1,2.206750661E-1,-1.765400618E-1
2.250372842E1,9.498954564E-2,3.659082949E-1,-1.082758680E-1
2.251372842E1,1.038470939E-1,2.837468982E-1,-7.651086897E-2
2.252372842E1,1.382082552E-1,1.739438772E-1,-4.428773187E-3
2.253372842E1,1.653917581E-1,8.475755155E-2,7.987063378E-2
2.254372842E1,1.705841124E-1,4.749477282E-2,1.420261711E-1
2.255372842E1,1.429424733E-1,7.651086897E-2,1.896736622E-1
2.256372842E1,-1.221730467E-2,2.335032374E-1,2.596177161E-1
2.257372842E1,-7.757988572E-2,2.576324046E-1,2.817615867E-1
2.258372842E1,-1.079704314E-1,2.490803003E-1,2.929098904E-1
2.259372842E1,-1.285871267E-1,2.260201424E-1,2.855795026E-1
2.260372842E1,-1.553124934E-1,2.029599845E-1,2.722931802E-1
2.261372842E1,-2.779437006E-1,1.275181174E-1,2.521346211E-1
2.262372842E1,-3.738495409E-1,7.987063378E-2,2.403754741E-1
2.263372842E1,-4.770857692E-1,6.017022580E-2,2.212859392E-1
2.264372842E1,-5.574145317E-1,3.924809024E-2,1.898263693E-1
2.265372842E1,-6.073527932E-1,6.414085161E-3,1.449277848E-1
2.266372842E1,-6.391177773E-1,-2.901609987E-2,9.025534242E-2
2.267372842E1,-7.221954465E-1,-8.765916526E-2,-1.802052557E-2
2.268372842E1,-7.454082966E-1,-8.536841720E-2,-4.963280261E-2
2.269372842E1,-7.357872128E-1,-5.513058975E-2,-7.773260027E-2
2.270372842E1,-6.947064996E-1,-3.207042441E-2,-9.987647086E-2
2.271372842E1,-6.377432942E-1,-1.863138936E-2,-1.087340117E-1
2.272372842E1,-5.429064631E-1,-8.552113548E-3,-8.460483700E-2
2.273372842E1,-4.955644310E-1,-1.802052557E-2,-7.009678334E-2
2.274372842E1,-4.360050559E-1,-4.321871698E-2,-5.696318299E-2
2.275372842E1,-3.811798990E-1,-8.063421398E-2,-4.612032697E-2
2.276372842E1,-3.446807265E-1,-1.240056455E-1,-4.001167417E-2
2.277372842E1,-3.228422701E-1,-1.699732542E-1,-4.123340547E-2
2.278372842E1,-2.828305960E-1,-2.823724449E-1,-6.688974798E-2
2.279372842E1,-2.611449063E-1,-3.090978265E-1,-8.888089657E-2
2.280372842E1,-2.309070677E-1,-2.884811163E-1,-1.182024255E-1
2.281372842E1,-2.055561543E-1,-2.496911734E-1,-1.525636017E-1
2.282372842E1,-2.069306076E-1,-2.328923792E-1,-1.794416606E-1
2.283372842E1,-3.393356502E-1,-2.564106882E-1,-1.960877478E-1
2.284372842E1,-4.303545654E-1,-2.371684313E-1,-1.933388561E-1
2.285372842E1,-4.521929920E-1,-1.766927689E-1,-1.701259762E-1
2.286372842E1,-3.998112977E-1,-9.896016866E-2,-1.166752651E-1
2.287372842E1,-3.326161206E-1,-1.634064503E-2,-3.298672289E-2
2.288372842E1,-3.115412891E-1,7.483099401E-2,6.811147183E-2
2.289372842E1,-3.497203588E-1,2.591595948E-1,2.498438805E-1
2.290372842E1,-3.107776940E-1,3.028364480E-1,2.654209435E-1
2.291372842E1,-2.503020465E-1,3.199406862E-1,2.408336252E-1
2.292372842E1,-2.130392492E-1,3.779728711E-1,1.795943826E-1
2.293372842E1,-2.425135076E-1,3.472768962E-1,9.056077152E-2
2.294372842E1,-2.425135076E-1,3.472768962E-1,9.056077152E-2
2.295372842E1,-2.823724449E-1,-1.459967941E-1,2.843577862E-1
2.296372842E1,-1.514945775E-1,-1.014036313E-1,5.083925724E-1
2.297372842E1,-1.817324013E-2,-1.015563458E-1,7.079927921E-1
2.298372842E1,3.375030309E-2,-1.469130963E-1,8.799513578E-1
2.299372842E1,-4.199698567E-2,-2.061670274E-1,9.975429177E-1
2.300372842E1,-3.510948122E-1,-1.130100712E-1,8.813258410E-1
2.301372842E1,-4.031710625E-1,3.268129006E-2,6.713408828E-1
2.302372842E1,-3.631593883E-1,1.398881376E-1,4.465425014E-1
2.303372842E1,-3.158173263E-1,2.893974185E-1,2.448042482E-1
2.304372842E1,-3.022255898E-1,4.766276181E-1,7.727445662E-2
2.305372842E1,-2.319760770E-1,7.205155492E-1,-1.553124934E-1
2.306372842E1,-1.351539344E-1,6.928738952E-1,-2.189951837E-1
2.307372842E1,-2.718350291E-2,5.539020896E-1,-2.509129047E-1
2.308372842E1,7.498370856E-2,3.533855379E-1,-2.498438805E-1
2.309372842E1,1.650863290E-1,1.624901593E-1,-2.339613885E-1
2.310372842E1,2.380847335E-1,2.122756653E-2,-2.217440903E-1
2.311372842E1,3.385720551E-1,-8.994990587E-2,-2.805398703E-1
2.312372842E1,3.892738819E-1,-2.703078650E-2,-3.149010241E-1
2.313372842E1,4.535674453E-1,5.299255997E-2,-3.202461004E-1
2.314372842E1,5.131267905E-1,9.804387391E-2,-2.936734557E-1
2.315372842E1,5.522221923E-1,8.384125680E-2,-2.461786866E-1
2.316372842E1,6.038402915E-1,-7.635815535E-3,-1.290452778E-1
2.317372842E1,6.210972667E-1,-8.491026610E-2,-8.506298810E-2
2.318372842E1,6.238461137E-1,-1.901318133E-1,-5.070181563E-2
2.319372842E1,6.143777370E-1,-2.843577862E-1,-7.941247895E-3
2.320372842E1,5.928447247E-1,-3.556762934E-1,4.352414981E-2
2.321372842E1,5.531384945E-1,-4.137084782E-1,9.636399150E-2
2.322372842E1,4.407392740E-1,-4.912883639E-1,1.676825136E-1
2.323372842E1,3.778201640E-1,-4.636467099E-1,2.031126916E-1
2.324372842E1,3.037527502E-1,-4.456261992E-1,2.083050460E-1
2.325372842E1,2.064724565E-1,-4.485278130E-1,1.696678251E-1
2.326372842E1,9.819658846E-2,-4.199698567E-1,1.247692257E-1
2.327372842E1,-9.040805697E-2,-3.480404615E-1,3.756821156E-2
2.328372842E1,-1.623374373E-1,-3.194825351E-1,-1.847867295E-2
2.329372842E1,-2.281581759E-1,-2.967278063E-1,-7.192938030E-2
2.330372842E1,-2.831360400E-1,-2.898555696E-1,-1.143845171E-1
2.331372842E1,-3.159700334E-1,-3.045163155E-1,-1.484402567E-1
2.332372842E1,-3.210096955E-1,-3.408628106E-1,-1.788308024E-1
2.333372842E1,-2.701551616E-1,-4.764748812E-1,-2.228130996E-1
2.334372842E1,-2.385428846E-1,-5.392413139E-1,-2.325869352E-1
2.335372842E1,-1.994474977E-1,-5.887213945E-1,-1.971567571E-1
2.336372842E1,-1.699732542E-1,-5.992587805E-1,-1.229366288E-1
2.337372842E1,-1.525636017E-1,-5.613851547E-1,-2.779436857E-2
2.338372842E1,-9.468411654E-2,-4.445571899E-1,1.621847153E-1
2.339372842E1,-3.741549700E-2,-2.967278063E-1,2.032654136E-1
2.340372842E1,-1.221730490E-3,-8.964447677E-2,2.124283910E-1
2.341372842E1,-1.847867295E-2,1.256855279E-1,1.915062517E-1
2.342372842E1,-7.116580009E-2,2.910772860E-1,1.389718503E-1
2.343372842E1,-1.201877370E-1,3.923282027E-1,6.322455406E-2
2.344372842E1,-1.805106848E-1,4.364632070E-1,-1.134682223E-1
2.345372842E1,-2.075414658E-1,3.685044646E-1,-1.937969923E-1
2.346372842E1,-2.455678284E-1,2.373211533E-1,-2.874121070E-1
2.347372842E1,-2.690861523E-1,9.911288321E-2,-3.981314301E-1
2.348372842E1,-2.466368377E-1,1.893682219E-2,-5.348125100E-1
2.349372842E1,-1.901318133E-1,1.233947799E-1,-8.695666790E-1
2.350372842E1,-2.735149264E-1,2.183843255E-1,-1.004873276E0
2.351372842E1,-3.831652105E-1,2.988658249E-1,-1.071763039E0
2.352372842E1,-4.207334518E-1,4.271475375E-1,-1.044885039E0
2.353372842E1,-3.413209617E-1,6.044511795E-1,-9.027060866E-1
2.354372842E1,-1.945605874E-1,7.906123400E-1,-6.766859889E-1
2.355372842E1,-9.560041130E-2,7.035640478E-1,-3.095559776E-1
2.356372842E1,-1.823432744E-1,4.422664344E-1,-2.222022265E-1
2.357372842E1,-2.620611787E-1,2.110539377E-1,-1.824959964E-1
2.358372842E1,-3.090978265E-1,1.527163084E-3,-1.647808999E-1
2.359372842E1,-3.342960179E-1,-2.150245607E-1,-1.569923609E-1
2.360372842E1,-4.192062616E-1,-2.854267955E-1,-1.444696337E-1
2.361372842E1,-4.957171381E-1,-1.586722434E-1,-1.345430762E-1
2.362372842E1,-5.783366561E-1,-3.054326214E-2,-1.272126883E-1
2.363372842E1,-6.669121385E-1,5.390885845E-2,-1.246165112E-1
2.364372842E1,-7.556403279E-1,1.032362282E-1,-1.157589629E-1
2.365372842E1,-8.258898258E-1,1.429424733E-1,-9.361509979E-2
2.366372842E1,-8.720101118E-1,1.852448881E-1,-7.162395120E-2
2.367372842E1,-8.501716852E-1,1.682933718E-1,-7.773260027E-2
2.368372842E1,-8.319984674E-1,1.065959856E-1,-9.361509979E-2
2.369372842E1,-8.356636763E-1,7.330383174E-3,-1.177442744E-1
2.370372842E1,-8.599455357E-1,-9.560041130E-2,-1.467603743E-1
2.371372842E1,-9.392052889E-1,-2.377792895E-1,-2.438879460E-1
2.372372842E1,-9.929614663E-1,-2.864958048E-1,-3.071125150E-1
2.373372842E1,-1.029460669E0,-3.375030458E-1,-3.568980098E-1
2.374372842E1,-1.046564937E0,-3.848451078E-1,-3.909537494E-1
2.375372842E1,-1.045495868E0,-4.187481403E-1,-4.152356386E-1
2.376372842E1,-1.026100874E0,-4.356996417E-1,-4.298964143E-1
2.377372842E1,-9.628763199E-1,-4.476115108E-1,-4.082106948E-1
2.378372842E1,-9.312640429E-1,-4.389066696E-1,-3.765984178E-1
2.379372842E1,-8.933904171E-1,-4.557054639E-1,-3.413209617E-1
2.380372842E1,-8.458956480E-1,-4.893030524E-1,-3.072652221E-1
2.381372842E1,-7.812966704E-1,-5.143485069E-1,-2.782491148E-1
2.382372842E1,-6.052147150E-1,-4.605923891E-1,-2.484694421E-1
2.383372842E1,-5.093088746E-1,-3.912591934E-1,-2.403754741E-1
2.384372842E1,-4.353941977E-1,-3.329215646E-1,-2.284636050E-1
2.385372842E1,-3.927863538E-1,-2.964223623E-1,-2.141082734E-1
2.386372842E1,-3.769038618E-1,-2.564106882E-1,-1.947132945E-1
2.387372842E1,-3.842342496E-1,-1.983784884E-1,-1.763873398E-1
2.388372842E1,-3.853032589E-1,-1.191187184E-2,-1.169806942E-1
2.389372842E1,-3.851505518E-1,-9.162978968E-4,-9.743300825E-2
2.390372842E1,-4.483750761E-1,-2.886338346E-2,-1.069014147E-1
2.391372842E1,-5.771149397E-1,-5.238169432E-2,-1.382082552E-1
2.392372842E1,-6.901249886E-1,-2.260201424E-2,-1.670716405E-1
2.393372842E1,-5.400048494E-1,1.059851199E-1,-2.105957866E-1
2.394372842E1,-4.343251884E-1,1.052215397E-1,-2.035708427E-1
2.395372842E1,-4.535674453E-1,8.949175477E-2,-1.547016203E-1
2.396372842E1,-5.283984542E-1,1.113301888E-1,-7.880161703E-2
2.397372842E1,-5.729916096E-1,2.105957866E-1,1.679879380E-3
2.398372842E1,-5.438227654E-1,3.692680299E-1,5.635231733E-2
2.399372842E1,-5.537493229E-1,4.744895697E-1,9.773843922E-3
2.400372842E1,-6.898195744E-1,3.625485301E-1,-2.855795063E-2
2.401372842E1,-8.388707042E-1,3.174972236E-1,3.817907767E-3
2.402372842E1,-8.770498037E-1,3.819434941E-1,1.588249654E-1
2.403372842E1,-7.727445364E-1,4.494441152E-1,3.926336467E-1
2.404372842E1,-5.655084848E-1,4.451680481E-1,7.994698882E-1
2.405372842E1,-6.866125464E-1,4.812090993E-1,8.790351152E-1
2.406372842E1,-9.152288437E-1,5.699372888E-1,8.090910316E-1
2.407372842E1,-1.107956886E0,5.809328556E-1,6.143777370E-1
2.408372842E1,-1.147815824E0,4.253149331E-1,3.915646076E-1
2.409372842E1,-1.086729288E0,2.179261744E-1,1.805106848E-1
2.410372842E1,-1.039845347E0,6.826419383E-2,-1.721112877E-1
2.411372842E1,-1.050077319E0,8.246681094E-2,-2.868012190E-1
2.412372842E1,-1.054200649E0,8.582656831E-2,-3.782783151E-1
2.413372842E1,-1.046259403E0,1.050688252E-1,-4.660901725E-1
2.414372842E1,-1.012661815E0,1.447750628E-1,-5.358815193E-1
2.415372842E1,-8.319984674E-1,2.130392492E-1,-5.806274414E-1
2.416372842E1,-7.009678483E-1,2.339613885E-1,-5.676465034E-1
2.417372842E1,-5.928447247E-1,2.199114859E-1,-5.632177591E-1
2.418372842E1,-5.140430927E-1,1.365283877E-1,-5.853615999E-1
2.419372842E1,-4.376849532E-1,3.497203439E-2,-6.293439269E-1
2.420372842E1,-3.770565689E-1,1.221730490E-3,-6.624833345E-1
2.421372842E1,-3.321579695E-1,4.367686436E-2,-6.577491760E-1
2.422372842E1,-3.248275816E-1,4.749477282E-2,-6.334672570E-1
2.423372842E1,-3.016147017E-1,2.580905706E-2,-6.017022729E-1
2.424372842E1,-2.698497176E-1,-2.122756653E-2,-5.664247870E-1
2.425372842E1,-2.403754741E-1,-7.788532227E-2,-5.273294449E-1
2.426372842E1,-2.131919712E-1,-1.597412676E-1,-4.346306324E-1
2.427372842E1,-2.032654136E-1,-1.789835095E-1,-3.882048726E-1
2.428372842E1,-1.945605874E-1,-1.933388561E-1,-3.539963961E-1
2.429372842E1,-1.895209402E-1,-2.078468949E-1,-3.297145069E-1
2.430372842E1,-1.858557463E-1,-2.247984111E-1,-3.101668358E-1
2.431372842E1,-1.942551434E-1,-2.246456891E-1,-2.869539559E-1
2.432372842E1,-2.751947939E-1,-1.629483104E-1,-2.037235647E-1
2.433372842E1,-3.297145069E-1,-1.134682223E-1,-1.840231568E-1
2.434372842E1,-3.758348525E-1,-5.314527452E-2,-1.754710376E-1
2.435372842E1,-4.231768847E-1,7.330383174E-3,-1.705841124E-1
2.436372842E1,-4.754058719E-1,3.970624134E-2,-1.716531366E-1
2.437372842E1,-5.945246220E-1,6.108652428E-2,-2.054034323E-1
2.438372842E1,-6.142250299E-1,5.971207842E-2,-2.370157093E-1
2.439372842E1,-5.888741016E-1,5.360342562E-2,-2.700024247E-1
2.440372842E1,-5.355761051E-1,4.169155285E-2,-2.945897579E-1
2.441372842E1,-4.735732675E-1,1.832595794E-3,-3.032945991E-1
2.442372842E1,-4.042400718E-1,-7.773260027E-2,-2.887865305E-1
2.443372842E1,-2.179261744E-1,-2.874121070E-1,-1.866193265E-1
2.444372842E1,-1.311833113E-1,-3.837760985E-1,-1.038470939E-1
2.445372842E1,-8.827003092E-2,-4.486805201E-1,-2.092213556E-2
2.446372842E1,-8.552113175E-2,-4.303545654E-1,4.245513305E-2
2.447372842E1,-8.063421398E-2,-2.910772860E-1,7.040221989E-2
2.448372842E1,-2.916881628E-2,2.073887438E-1,3.359758761E-3
2.449372842E1,-2.855795063E-2,4.431827366E-1,-6.291911751E-2
2.450372842E1,-7.406741381E-2,5.758932233E-1,-1.421788931E-1
2.451372842E1,-1.447750628E-1,5.936083198E-1,-2.102903575E-1
2.452372842E1,-2.067778856E-1,5.111414790E-1,-2.454151064E-1
2.453372842E1,-2.394591719E-1,3.694207668E-1,-2.498438805E-1
2.454372842E1,-1.884519309E-1,5.604688451E-2,-2.935207486E-1
2.455372842E1,-1.301143020E-1,-4.795292020E-2,-3.081815243E-1
2.456372842E1,-1.070541367E-1,-1.511891466E-2,-2.973386645E-1
2.457372842E1,-1.629483104E-1,9.483683109E-2,-2.985603809E-1
2.458372842E1,-2.834414840E-1,2.383901626E-1,-3.446807265E-1
2.459372842E1,-4.776966274E-1,6.667594314E-1,-5.106833577E-1
2.460372842E1,-4.734205604E-1,8.008443117E-1,-6.096435189E-1
2.461372842E1,-4.482223690E-1,7.246388793E-1,-6.621779203E-1
2.462372842E1,-4.477642179E-1,4.802927971E-1,-6.336199641E-1
2.463372842E1,-4.946481287E-1,2.551889420E-1,-5.587889552E-1
2.464372842E1,-5.645921826E-1,1.947132945E-1,-4.888449013E-1
2.465372842E1,-5.911648273E-1,3.872885704E-1,-4.219551682E-1
2.466372842E1,-6.067419052E-1,4.671591818E-1,-3.914119005E-1
2.467372842E1,-6.368269920E-1,4.465425014E-1,-3.462078869E-1
2.468372842E1,-6.352998614E-1,3.451388776E-1,-2.849686444E-1
2.469372842E1,-6.021603942E-1,2.147191316E-1,-2.336559594E-1
2.470372842E1,-5.568036437E-1,-2.351831272E-2,-2.078468949E-1
2.471372842E1,-6.078109145E-1,-1.120937690E-1,-2.281581759E-1
2.472372842E1,-7.002043128E-1,-1.716531366E-1,-2.484694421E-1
2.473372842E1,-8.022187948E-1,-1.829541475E-1,-2.664899528E-1
2.474372842E1,-8.946121335E-1,-1.589776874E-1,-2.771801054E-1
2.475372842E1,-9.699012637E-1,-1.157589629E-1,-2.878702581E-1
2.476372842E1,-1.073137522E0,-5.436700583E-2,-3.034473062E-1
2.477372842E1,-1.131475091E0,-6.780604273E-2,-3.130684495E-1
2.478372842E1,-1.202030063E0,-9.605856240E-2,-3.457497358E-1
2.479372842E1,-1.272737741E0,-1.241583601E-1,-3.978259861E-1
2.480372842E1,-1.330006361E0,-1.438587606E-1,-4.610505402E-1
2.481372842E1,-1.369101763E0,-1.623374373E-1,-5.254968405E-1
2.482372842E1,-1.415680170E0,-2.050980031E-1,-6.009386778E-1
2.483372842E1,-1.420414448E0,-2.400700450E-1,-5.960517526E-1
2.484372842E1,-1.389871120E0,-2.774855494E-1,-5.740606189E-1
2.485372842E1,-1.325424910E0,-3.002402782E-1,-5.389358401E-1
2.486372842E1,-1.235474944E0,-3.155119121E-1,-5.074763298E-1
2.487372842E1,-1.018006921E0,-2.360994220E-1,-4.705189466E-1
2.488372842E1,-9.098837972E-1,-1.837177277E-1,-4.491386712E-1
2.489372842E1,-8.188648820E-1,-1.325577646E-1,-4.214970171E-1
2.490372842E1,-7.495316267E-1,-9.117163718E-2,-3.949243724E-1
2.491372842E1,-6.936374903E-1,-8.124507964E-2,-3.769038618E-1
2.492372842E1,-6.449210048E-1,-1.137736514E-1,-3.599523604E-1
2.493372842E1,-5.801692605E-1,-2.331978083E-1,-2.964223623E-1
2.494372842E1,-5.714644194E-1,-2.645046413E-1,-2.658790946E-1
2.495372842E1,-5.859724879E-1,-2.402227521E-1,-2.524400651E-1
2.496372842E1,-6.175847650E-1,-1.980730593E-1,-2.585487068E-1
2.497372842E1,-6.261368990E-1,-1.447750628E-1,-2.354885489E-1
2.498372842E1,-6.261368990E-1,-1.447750628E-1,-2.354885489E-1
2.499372842E1,-6.560692787E-1,-1.701259762E-1,-1.693623960E-1
2.500372842E1,-7.131851912E-1,-1.788308024E-1,-1.838704348E-1
2.501372842E1,-7.315111160E-1,-1.426370293E-1,-2.081523389E-1
2.502372842E1,-7.063129544E-1,-6.643159688E-2,-2.341141105E-1
2.503372842E1,-6.407976151E-1,1.374446787E-2,-2.405281961E-1
2.504372842E1,-6.371324658E-1,8.032877743E-2,-2.150245607E-1
2.505372842E1,-6.892086864E-1,5.711590126E-2,-2.063197345E-1
2.506372842E1,-6.904304624E-1,6.322455406E-2,-2.087631971E-1
2.507372842E1,-6.579018831E-1,9.834930301E-2,-2.393064648E-1
2.508372842E1,-6.533203721E-1,1.308778822E-1,-3.003929853E-1
2.509372842E1,-8.674286604E-1,8.155050874E-2,-3.911064863E-1
2.510372842E1,-9.679159522E-1,1.273654103E-1,-3.298672438E-1
2.511372842E1,-9.709703326E-1,2.512183189E-1,-1.945605874E-1
2.512372842E1,-8.875871897E-1,2.797762752E-1,-1.435533352E-2
2.513372842E1,-7.918340564E-1,1.753183305E-1,1.649336219E-1
2.514372842E1,-7.728972435E-1,1.114829108E-1,2.918408811E-1
2.515372842E1,-1.027169943E0,3.404046595E-1,2.130392492E-1
2.516372842E1,-1.160033107E0,3.300199509E-1,1.012509167E-1
2.517372842E1,-1.213789225E0,1.481348276E-1,1.023199316E-2
2.518372842E1,-1.210429430E0,-1.014036313E-1,-8.078692853E-2
2.519372842E1,-1.182787776E0,-3.095559776E-1,-1.647808999E-1
2.520372842E1,-1.156826019E0,-3.947716653E-1,-3.391829133E-1
2.521372842E1,-1.131933331E0,-3.234531581E-1,-4.358523488E-1
2.522372842E1,-1.079093456E0,-2.171625942E-1,-5.314527750E-1
2.523372842E1,-1.004262447E0,-1.154535338E-1,-6.221662760E-1
2.524372842E1,-9.185886383E-1,-4.169155285E-2,-6.896668673E-1
2.525372842E1,-8.289441466E-1,2.275473066E-2,-7.108944058E-1
2.526372842E1,-6.806566119E-1,6.444628537E-2,-6.601926088E-1
2.527372842E1,-6.417139173E-1,6.826419383E-2,-6.481280327E-1
2.528372842E1,-6.259841323E-1,7.299839705E-2,-6.568328738E-1
2.529372842E1,-6.212499738E-1,4.642575979E-2,-6.798930168E-1
2.530372842E1,-6.091853380E-1,-9.315694682E-3,-7.055493593E-1
2.531372842E1,-5.387831330E-1,-9.743300825E-2,-7.275404930E-1
2.532372842E1,-4.949535728E-1,-1.203404516E-1,-7.130324841E-1
2.533372842E1,-4.621195495E-1,-1.430951804E-1,-6.924157739E-1
2.534372842E1,-4.352414906E-1,-1.731802970E-1,-6.632469296E-1
2.535372842E1,-4.071416855E-1,-2.093740702E-1,-6.302602291E-1
2.536372842E1,-3.802636266E-1,-2.370157093E-1,-5.937610269E-1
2.537372842E1,-2.959642112E-1,-2.970332205E-1,-5.122104883E-1
2.537372842E1,-2.959642112E-1,-2.970332205E-1,-5.122104883E-1
2.539372842E1,-1.814269722E-1,-3.133738637E-1,-4.283692539E-1
2.540372842E1,-1.400408596E-1,-2.658790946E-1,-3.798054755E-1
2.541372842E1,-1.094975919E-1,-1.736384481E-1,-3.263547719E-1
2.542372842E1,-5.818491429E-2,5.787948146E-2,-2.316706479E-1
2.543372842E1,-5.925392732E-2,1.802052408E-1,-1.843285859E-1
2.544372842E1,-8.460483700E-2,2.770273983E-1,-1.404990107E-1
2.545372842E1,-1.258382350E-1,3.301726580E-1,-1.075122803E-1
2.546372842E1,-1.779145002E-1,3.422372639E-1,-8.292495459E-2
2.547372842E1,-2.263255715E-1,3.130684495E-1,-6.795875728E-2
2.548372842E1,-2.591595948E-1,1.556179225E-1,-1.018617824E-1
2.549372842E1,-2.519819140E-1,6.719517708E-2,-1.395827085E-1
2.550372842E1,-2.446515262E-1,-1.511891466E-2,-1.626428664E-1
2.551372842E1,-2.313652188E-1,-9.132435173E-2,-1.771509200E-1
2.552372842E1,-1.962404549E-1,-1.421788931E-1,-1.881465018E-1
2.553372842E1,-1.233947799E-1,-2.121229619E-1,-2.188424766E-1
2.554372842E1,-1.039998084E-1,-2.883284092E-1,-2.176207453E-1
2.555372842E1,-7.223481685E-2,-3.921754956E-1,-1.968513280E-1
2.556372842E1,-2.596177347E-2,-4.138612151E-1,-1.835650057E-1
2.557372842E1,7.941247895E-3,-3.011565804E-1,-1.863138974E-1
2.558372842E1,1.007927675E-2,-1.113301888E-1,-2.109012306E-1
2.559372842E1,-2.703078650E-2,2.464841306E-1,-2.858849466E-1
2.560372842E1,-2.367102914E-2,4.292855561E-1,-2.922990322E-1
2.561372842E1,1.160643995E-2,5.710062981E-1,-2.730567753E-1
2.562372842E1,8.093964309E-2,6.185010672E-1,-2.319760770E-1
2.563372842E1,1.782199293E-1,5.705481172E-1,-1.834122837E-1
2.564372842E1,2.813034356E-1,3.576616049E-1,-2.518292069E-1
2.565372842E1,3.040581644E-1,2.982549667E-1,-3.054326177E-1
2.566372842E1,3.414736688E-1,2.837468982E-1,-3.628539443E-1
2.567372842E1,3.654501438E-1,3.284927905E-1,-4.069889784E-1
2.568372842E1,3.046690524E-1,3.680463135E-1,-4.349360466E-1
2.569372842E1,1.576032341E-1,4.014911950E-1,-4.442517459E-1
2.570372842E1,3.649919853E-2,3.915646076E-1,-4.205807149E-1
2.571372842E1,8.002334833E-2,3.601050675E-1,-4.560109079E-1
2.572372842E1,8.460483700E-2,3.478877544E-1,-4.975497425E-1
2.573372842E1,2.993239649E-2,4.143193662E-1,-4.876231849E-1
2.574372842E1,-6.551529467E-2,4.905247986E-1,-4.068362415E-1
2.575372842E1,-1.766927689E-1,4.427245855E-1,-8.063421398E-2
2.576372842E1,-1.514945775E-1,2.944370508E-1,8.918632567E-2
2.577372842E1,-1.215621829E-1,1.192714423E-1,2.101376504E-1
2.578372842E1,-1.175915599E-1,-2.092213556E-2,2.652682364E-1
2.579372842E1,-1.695151031E-1,-9.239336848E-2,2.826778889E-1
2.580372842E1,-2.593123019E-1,-6.597344577E-2,2.903137207E-1
2.581372842E1,-3.822489381E-1,6.780604273E-2,2.611449063E-1
2.582372842E1,-3.738495409E-1,6.047565863E-2,2.197587788E-1
2.583372842E1,-3.642283976E-1,4.886921961E-3,2.026545405E-1
2.584372842E1,-3.762930036E-1,-4.841107130E-2,2.113593817E-1
2.585372842E1,-4.211915731E-1,-9.819658846E-2,2.163990140E-1
2.586372842E1,-5.571091175E-1,-1.554652005E-1,1.986839175E-1
2.587372842E1,-6.215553880E-1,-1.496619880E-1,1.684460938E-1
2.588372842E1,-6.838636398E-1,-1.197295859E-1,1.174388453E-1
2.589372842E1,-7.521278262E-1,-9.117163718E-2,4.932736978E-2
2.590372842E1,-8.132143617E-1,-9.040805697E-2,-3.222314268E-2
2.591372842E1,-8.524624705E-1,-9.911288321E-2,-1.151480973E-1
2.592372842E1,-8.639161587E-1,-1.030835137E-1,-2.247984111E-1
2.593372842E1,-8.144360781E-1,-7.880161703E-2,-2.580905557E-1
2.594372842E1,-7.415903807E-1,-6.291911751E-2,-2.741257846E-1
2.595372842E1,-6.713408828E-1,-6.994406879E-2,-2.805398703E-1
2.596372842E1,-5.887213945E-1,-8.185594529E-2,-2.710714638E-1
2.597372842E1,-4.257730842E-1,-1.296561509E-1,-2.277000248E-1
2.598372842E1,-3.564398587E-1,-1.704314053E-1,-2.070833147E-1
2.599372842E1,-2.968805134E-1,-2.090686262E-1,-1.937969923E-1
2.600372842E1,-2.519819140E-1,-2.475531399E-1,-1.902845204E-1
2.601372842E1,-2.446515262E-1,-2.620611787E-1,-1.927279830E-1
2.602372842E1,-2.701551616E-1,-2.428189367E-1,-2.023491114E-1
2.603372842E1,-2.898555696E-1,-1.014036313E-1,-2.134974003E-1
2.604372842E1,-2.571742535E-1,-2.993239649E-2,-2.162462920E-1
2.605372842E1,-2.667953968E-1,-3.359758761E-3,-2.186897546E-1
2.606372842E1,-3.590360582E-1,-1.924225502E-2,-2.159408629E-1
2.607372842E1,-4.877758920E-1,-2.092213556E-2,-2.189951837E-1
2.608372842E1,-5.209153295E-1,8.659014851E-2,-2.629774809E-1
2.609372842E1,-4.201225638E-1,9.407325089E-2,-2.609921694E-1
2.610372842E1,-3.627012372E-1,4.886921961E-3,-2.049452960E-1
2.611372842E1,-3.886630237E-1,-1.061378345E-1,-8.750644326E-2
2.612372842E1,-4.401284158E-1,-1.094975919E-1,7.131851465E-2
2.613372842E1,-4.479169548E-1,2.138028387E-3,2.127338201E-1
2.614372842E1,-3.255911767E-1,2.289217561E-1,2.180788964E-1
2.615372842E1,-3.087923825E-1,1.464549452E-1,1.595885456E-1
2.616372842E1,-3.220787048E-1,6.780604273E-2,1.646281779E-1
2.617372842E1,-3.130684495E-1,1.371392459E-1,2.693915665E-1
2.618372842E1,-2.431243658E-1,3.362813294E-1,4.616613984E-1
2.619372842E1,-9.086620808E-2,6.330091357E-1,8.571966290E-1
2.620372842E1,-2.365575731E-1,7.318165898E-1,8.538368940E-1
2.621372842E1,-5.009095073E-1,8.382598162E-1,6.899722815E-1
2.622372842E1,-7.606799603E-1,8.973610401E-1,4.515821338E-1
2.623372842E1,-9.027060866E-1,8.659014702E-1,2.118175179E-1
2.624372842E1,-8.622363210E-1,7.493789196E-1,2.993239649E-2
2.625372842E1,-6.351471543E-1,4.747950137E-1,-2.229658216E-1
2.626372842E1,-6.108652353E-1,3.089450896E-1,-2.643519342E-1
2.627372842E1,-5.946773291E-1,1.276708394E-1,-2.104430795E-1
2.628372842E1,-5.687155724E-1,2.504547499E-2,-1.395827085E-1
2.629372842E1,-5.114469528E-1,2.657263726E-2,-1.104138941E-1
2.630372842E1,-2.713768780E-1,9.850201756E-2,-1.492038369E-1
2.631372842E1,-1.501201391E-1,6.017022580E-2,-1.740965992E-1
2.632372842E1,-5.803219974E-2,-5.039638374E-3,-1.999056488E-1
2.633372842E1,-1.450804994E-2,-4.016438872E-2,-2.414444834E-1
2.634372842E1,-1.847867295E-2,-3.909537569E-2,-3.013092875E-1
2.635372842E1,-2.718350291E-2,-2.718350291E-2,-3.646865487E-1
2.636372842E1,3.894266114E-2,-2.244929783E-2,-4.650211632E-1
2.637372842E1,8.750644326E-2,-5.497787148E-2,-4.749477208E-1
2.638372842E1,1.374446750E-1,-1.322523206E-1,-4.639521539E-1
2.639372842E1,1.800525337E-1,-2.409863323E-1,-4.395175576E-1
2.640372842E1,2.144137025E-1,-3.338378668E-1,-4.089742899E-1
2.641372842E1,2.742784917E-1,-3.698789179E-1,-3.371976018E-1
2.642372842E1,2.950479090E-1,-3.503312171E-1,-3.031418920E-1
2.643372842E1,3.121521473E-1,-3.428481221E-1,-2.788599730E-1
2.644372842E1,3.365867436E-1,-3.404046595E-1,-2.470949888E-1
2.645372842E1,3.561344445E-1,-3.329215646E-1,-2.069306076E-1
2.646372842E1,3.491095006E-1,-3.135266006E-1,-1.667662114E-1
2.647372842E1,2.800817192E-1,-2.299907655E-1,-1.030835137E-1
2.648372842E1,2.474004179E-1,-1.658499092E-1,-8.475755155E-2
2.649372842E1,2.121229619E-1,-1.079704314E-1,-8.109235764E-2
2.650372842E1,1.818851233E-1,-7.528914511E-2,-7.376197726E-2
2.651372842E1,1.551597714E-1,-6.444628537E-2,-6.032294407E-2
2.652372842E1,1.165225431E-1,-8.628471941E-2,-3.084869497E-2
2.653372842E1,1.226311997E-1,-1.285871267E-1,-2.214386500E-2
2.654372842E1,1.397354305E-1,-1.817324162E-1,-1.237002108E-2
2.655372842E1,1.678352207E-1,-2.360994220E-1,1.069014193E-3
2.656372842E1,2.165517360E-1,-2.903137207E-1,3.512475267E-2
2.657372842E1,2.921462953E-1,-3.298672438E-1,9.712757170E-2
2.658372842E1,4.981606007E-1,-3.190243840E-1,2.683225572E-1
2.659372842E1,6.018549800E-1,-3.245221674E-1,3.643811047E-1
2.660372842E1,6.762278080E-1,-3.434589803E-1,4.459316432E-1
2.661372842E1,6.922630668E-1,-3.057380617E-1,5.019785166E-1
2.662372842E1,6.739370823E-1,-1.788308024E-1,4.920519590E-1
2.663372842E1,5.922338367E-1,1.797471046E-1,2.513710558E-1
2.664372842E1,5.754350424E-1,3.158173263E-1,7.177666575E-2
2.665372842E1,5.490151644E-1,4.132503271E-1,-1.101084575E-1
2.666372842E1,5.033529401E-1,4.769330323E-1,-2.527455091E-1
2.667372842E1,4.749477208E-1,4.245513380E-1,-3.355177343E-1
2.668372842E1,4.225660264E-1,2.487748712E-1,-4.046982229E-1
2.669372842E1,2.069306076E-1,1.241583601E-1,-5.855143666E-1
2.670372842E1,1.456913650E-1,1.430951804E-1,-6.878342628E-1
2.671372842E1,1.511891484E-1,1.221730486E-1,-8.098546267E-1
2.672372842E1,2.333505303E-1,6.658431143E-2,-8.990409374E-1
2.673372842E1,3.888157308E-1,5.009094998E-2,-8.752171993E-1
2.674372842E1,5.665774941E-1,2.356412709E-1,-5.161811113E-1
2.675372842E1,5.222898126E-1,4.428772926E-1,-3.272710443E-1
2.676372842E1,4.647157490E-1,6.440047026E-1,-1.675297916E-1
2.677372842E1,4.082106948E-1,7.021896243E-1,-6.001751125E-2
2.678372842E1,3.394883573E-1,5.158756971E-1,-9.162978968E-4
2.679372842E1,2.732094824E-1,2.193006277E-1,5.971207842E-2
2.680372842E1,1.954768747E-1,-3.819434941E-1,1.829541475E-1
2.681372842E1,1.435533315E-1,-4.751004577E-1,2.150245607E-1
2.682372842E1,4.764748737E-2,-4.306600094E-1,2.092213482E-1
2.683372842E1,-9.224065393E-2,-3.042109013E-1,1.863138974E-1
2.684372842E1,-2.489275932E-1,-1.412625909E-1,1.719585657E-1
2.685372842E1,-4.992296100E-1,1.374446750E-1,1.724167168E-1
2.686372842E1,-5.587889552E-1,1.881465018E-1,1.762346178E-1
2.687372842E1,-5.806274414E-1,1.771509200E-1,1.727221459E-1
2.688372842E1,-5.806274414E-1,1.177442744E-1,1.531744599E-1
2.689372842E1,-5.783366561E-1,1.481348183E-2,1.241583601E-1
2.690372842E1,-5.904012322E-1,-9.651670605E-2,9.865473956E-2
2.691372842E1,-6.220135093E-1,-3.170390725E-1,4.795292020E-2
2.692372842E1,-6.221662760E-1,-4.030183554E-1,1.145372353E-2
2.693372842E1,-6.125451326E-1,-4.781547785E-1,-2.626720630E-2
2.694372842E1,-6.188064814E-1,-5.169447064E-1,-6.032294407E-2
2.695372842E1,-6.505714655E-1,-5.170974135E-1,-9.193521738E-2
2.696372842E1,-6.809620261E-1,-4.906775057E-1,-1.102611795E-1
2.697372842E1,-6.508769393E-1,-3.587306142E-1,-1.397354305E-1
2.698372842E1,-5.977316499E-1,-2.958115041E-1,-1.608102769E-1
2.699372842E1,-5.322163701E-1,-2.460259795E-1,-1.843285859E-1
2.700372842E1,-4.523457289E-1,-2.083050460E-1,-2.041817009E-1
2.701372842E1,-3.613267839E-1,-1.887573600E-1,-2.156354338E-1
2.702372842E1,-1.902845204E-1,-1.676825136E-1,-2.235766798E-1
2.703372842E1,-1.295034289E-1,-1.516472995E-1,-2.116648108E-1
2.704372842E1,-9.056077152E-2,-1.298088580E-1,-1.934915632E-1
2.705372842E1,-7.116580009E-2,-1.188132912E-1,-1.814269722E-1
2.706372842E1,-6.383541971E-2,-1.102611795E-1,-1.667662114E-1
2.707372842E1,-5.894849449E-2,-7.147123665E-2,-1.461495161E-1
2.708372842E1,-7.467827946E-2,-1.017090604E-1,-1.435533315E-1
2.709372842E1,-1.159116775E-1,-1.635591686E-1,-1.481348276E-1
2.710372842E1,-1.875356287E-1,-2.339613885E-1,-1.588249654E-1
2.711372842E1,-2.579378486E-1,-2.669481039E-1,-1.756237596E-1
2.712372842E1,-2.860376537E-1,-2.393064648E-1,-2.109012306E-1
2.713372842E1,-2.790127099E-1,-1.534798890E-1,-2.379320115E-1
2.714372842E1,-2.968805134E-1,-1.061378345E-1,-1.829541475E-1
2.715372842E1,-3.074179292E-1,-1.267545391E-2,-8.552113175E-2
2.716372842E1,-3.045163155E-1,1.461495161E-1,3.252857551E-2
2.717372842E1,-2.774855494E-1,3.376557529E-1,1.383609772E-1
2.718372842E1,-2.481640130E-1,4.697553813E-1,2.002110779E-1
2.719372842E1,-2.845104933E-1,3.959933817E-1,2.066251636E-1
2.720372842E1,-3.158173263E-1,2.360994220E-1,2.264782935E-1
2.721372842E1,-3.226895630E-1,1.769981980E-1,2.889392674E-1
2.722372842E1,-2.771801054E-1,2.405281961E-1,4.302018583E-1
2.723372842E1,-1.487456858E-1,3.129157126E-1,6.443101168E-1
2.724372842E1,-5.192354787E-3,3.346014321E-1,9.280570149E-1
2.725372842E1,-1.498146951E-1,2.977968156E-1,9.042332768E-1
2.726372842E1,-3.688098788E-1,2.762638032E-1,7.770205736E-1
2.727372842E1,-5.143485069E-1,3.417791128E-1,5.858197808E-1
2.728372842E1,-5.215262175E-1,5.106833577E-1,4.074471295E-1
2.729372842E1,-4.360050559E-1,6.449210048E-1,2.811507285E-1
2.730372842E1,-2.510656118E-1,5.264131427E-1,1.075122803E-1
2.731372842E1,-2.157881409E-1,3.474296033E-1,8.689557761E-2
2.732372842E1,-2.304489166E-1,2.142609805E-1,6.643159688E-2
2.733372842E1,-2.269364446E-1,1.838704348E-1,2.244929783E-2
2.734372842E1,-1.519527286E-1,2.032654136E-1,-3.390302137E-2
2.735372842E1,5.406157300E-2,1.504255682E-1,-9.315694869E-2
2.736372842E1,1.427897513E-1,1.035416573E-1,-9.590584040E-2
2.737372842E1,2.046398520E-1,7.956519723E-2,-1.094975919E-1
2.738372842E1,2.214386463E-1,8.674286306E-2,-1.424843222E-1
2.739372842E1,2.186897546E-1,5.757404864E-2,-1.924225539E-1
2.740372842E1,2.209804952E-1,-4.276056774E-3,-2.460259795E-1
2.741372842E1,3.019201458E-1,-1.217148975E-1,-3.339905739E-1
2.742372842E1,3.709479272E-1,-1.626428664E-1,-3.695734739E-1
2.743372842E1,4.450153410E-1,-1.902845204E-1,-3.894265890E-1
2.744372842E1,5.021312237E-1,-2.324342281E-1,-3.785837293E-1
2.745372842E1,5.253441334E-1,-2.855795026E-1,-3.431535661E-1
2.746372842E1,5.407684445E-1,-3.153591752E-1,-1.954768747E-1
2.747372842E1,5.616905689E-1,-2.872593701E-1,-1.211040318E-1
2.748372842E1,5.946773291E-1,-2.579378486E-1,-5.910121277E-2
2.749372842E1,6.229298115E-1,-2.698497176E-1,-1.771509275E-2
2.750372842E1,6.400340796E-1,-2.878702581E-1,2.015855350E-2
2.751372842E1,6.342308521E-1,-2.854267955E-1,5.558873713E-2
2.752372842E1,5.204572082E-1,-2.431243658E-1,1.266018152E-1
2.753372842E1,4.282165468E-1,-1.828014255E-1,1.525636017E-1
2.754372842E1,3.310889602E-1,-1.165225431E-1,1.637118906E-1
2.755372842E1,2.533563673E-1,-6.001751125E-2,1.638645977E-1
2.756372842E1,2.047925740E-1,-3.588833287E-2,1.566869318E-1
2.757372842E1,1.718058437E-1,-1.062905490E-1,1.069014147E-1
2.758372842E1,1.840231568E-1,-1.463022232E-1,9.712757170E-2
2.759372842E1,2.168571651E-1,-1.461495161E-1,1.166752651E-1
2.760372842E1,2.619084716E-1,-9.987647086E-2,1.518000066E-1
2.761372842E1,3.081815243E-1,-5.482515693E-2,1.869247705E-1
2.762372842E1,3.568980098E-1,-6.078109145E-2,2.124283910E-1
2.763372842E1,3.956879675E-1,-3.756821156E-2,2.292271852E-1
2.764372842E1,3.436116874E-1,-1.221730467E-2,2.428189367E-1
2.765372842E1,2.840523422E-1,-3.787364438E-2,2.284636050E-1
2.766372842E1,2.376265824E-1,-2.244929783E-2,1.528690308E-1
2.767372842E1,2.028072625E-1,7.269296050E-2,3.329215571E-2
2.768372842E1,1.576032341E-1,3.718642294E-1,-2.269364446E-1
2.769372842E1,1.085812971E-1,5.167919993E-1,-3.026837409E-1
2.770372842E1,6.475171447E-2,6.012440920E-1,-3.112358451E-1
2.771372842E1,7.819075137E-2,5.795583725E-1,-2.855795026E-1
2.772372842E1,1.644754708E-1,4.660901725E-1,-2.784018219E-1
2.773372842E1,2.493857294E-1,1.140790880E-1,-3.512475193E-1
2.774372842E1,1.207986027E-1,-1.327104717E-1,-6.189591885E-1
2.775372842E1,-1.527163113E-4,2.993239649E-2,-7.492262125E-1
2.776372842E1,-1.527163107E-2,2.099849284E-1,-8.385652900E-1
2.777372842E1,7.422012836E-2,4.327980280E-1,-8.515461683E-1
2.778372842E1,2.153300047E-1,6.174320579E-1,-7.571674585E-1
2.779372842E1,3.313944042E-1,5.763513446E-1,-3.987422884E-1
2.780372842E1,2.203696370E-1,5.534439087E-1,-2.506074607E-1
2.781372842E1,8.979719132E-2,5.800165534E-1,-1.440114826E-1
2.782372842E1,-2.138028387E-3,5.931501389E-1,-8.399397135E-2
2.783372842E1,-5.894849449E-2,5.290092826E-1,-5.436700583E-2
2.784372842E1,-7.315111160E-2,3.426954150E-1,-2.474004216E-2
2.785372842E1,1.863138936E-2,4.444044828E-2,9.376781434E-2
2.786372842E1,3.726277873E-2,2.046398632E-2,1.499674171E-1
2.787372842E1,-9.926560335E-3,8.933904022E-2,1.866193265E-1
2.788372842E1,-1.325577646E-1,1.592831165E-1,2.015855312E-1
2.789372842E1,-2.842050493E-1,1.878410578E-1,2.093740702E-1
2.790372842E1,-3.897320330E-1,7.009678334E-2,2.075414658E-1
2.791372842E1,-3.740022480E-1,-6.536258012E-2,1.954768747E-1
2.792372842E1,-3.848451078E-1,-2.238821089E-1,1.860084683E-1
2.793372842E1,-4.356996417E-1,-3.475823104E-1,1.815796942E-1
2.794372842E1,-5.109887719E-1,-4.228714705E-1,1.672243625E-1
2.795372842E1,-5.850561857E-1,-4.654793143E-1,1.359175146E-1
2.796372842E1,-7.081455588E-1,-4.601342380E-1,4.123340547E-2
2.797372842E1,-7.570147514E-1,-4.361577928E-1,-2.092213556E-2
2.798372842E1,-7.803803682E-1,-4.254676402E-1,-8.063421398E-2
2.799372842E1,-7.745771408E-1,-3.978259861E-1,-1.307251602E-1
2.800372842E1,-7.530441284E-1,-3.555235863E-1,-1.736384481E-1
2.801372842E1,-6.817256212E-1,-2.997821271E-1,-2.301434875E-1
2.802372842E1,-6.247624159E-1,-2.561052442E-1,-2.412917763E-1
2.803372842E1,-5.398521423E-1,-1.977676302E-1,-2.429716438E-1
2.804372842E1,-4.331034720E-1,-1.223257631E-1,-2.313652188E-1
2.805372842E1,-3.129157126E-1,-7.483099401E-2,-2.049452960E-1
2.806372842E1,-1.901318133E-1,-7.437284291E-2,-1.736384481E-1
2.807372842E1,9.315694682E-3,-1.363756657E-1,-1.084285825E-1
2.808372842E1,6.536258012E-2,-1.713477075E-1,-7.803803682E-2
2.809372842E1,9.819658846E-2,-1.953241676E-1,-5.986479297E-2
2.810372842E1,1.153008118E-1,-2.098322064E-1,-4.764748737E-2
2.811372842E1,1.081231460E-1,-2.182316035E-1,-3.787364438E-2
2.812372842E1,8.735372871E-2,-2.171625942E-1,-5.971207842E-2
2.813372842E1,7.987063378E-2,-2.596177161E-1,-9.865473956E-2
2.814372842E1,3.848451003E-2,-3.397938013E-1,-1.398881376E-1
2.815372842E1,-3.680463135E-2,-4.198171496E-1,-1.553124934E-1
2.816372842E1,-1.010981947E-1,-4.248567820E-1,-1.649336219E-1
2.817372842E1,-1.218676195E-1,-3.741549551E-1,-1.759291887E-1
2.818372842E1,-8.292495459E-2,-2.299907655E-1,-1.311833113E-1
2.819372842E1,-6.200282276E-2,-1.547016203E-1,-6.536258012E-2
2.820372842E1,-6.291911751E-2,-2.504547499E-2,2.840523422E-2
2.821372842E1,-1.159116775E-1,1.493565589E-1,1.295034289E-1
2.822372842E1,-1.824959964E-1,3.029891551E-1,2.003637999E-1
2.823372842E1,-2.932153046E-1,2.794708610E-1,1.348485053E-1
2.824372842E1,-3.662137091E-1,2.307543457E-1,9.498954564E-2
2.825372842E1,-4.326453209E-1,2.089159191E-1,1.513418704E-1
2.826372842E1,-4.001167417E-1,1.576032341E-1,3.404046595E-1
2.827372842E1,-2.506074607E-1,6.444628537E-2,6.061310172E-1
2.828372842E1,-6.230825558E-2,7.635815535E-3,8.691084981E-1
2.829372842E1,-8.170322329E-2,1.087340117E-1,1.134987593E0
2.830372842E1,-2.933680415E-1,1.537853181E-1,1.035569310E0
2.831372842E1,-4.205807149E-1,1.444696337E-1,8.604037166E-1
2.832372842E1,-3.472768962E-1,1.768454909E-1,7.063129544E-1
2.833372842E1,-1.769981980E-1,2.435825169E-1,5.419901609E-1
2.834372842E1,-7.315111160E-2,9.147707373E-2,1.721112877E-1
2.835372842E1,-1.272126883E-1,-4.688390717E-2,3.833179548E-2
2.836372842E1,-1.724167168E-1,-1.102611795E-1,-5.161811411E-2
2.837372842E1,-1.411098689E-1,-8.842274547E-2,-1.043052375E-1
2.838372842E1,-2.122756653E-2,-1.435533352E-2,-1.218676195E-1
2.839372842E1,1.366810948E-1,3.573561832E-2,-9.819658846E-2
2.840372842E1,4.079052806E-1,1.878410578E-2,-2.748893574E-3
2.841372842E1,4.830417037E-1,1.893682219E-2,-1.527163107E-2
2.842372842E1,5.290092826E-1,1.649336144E-2,-6.291911751E-2
2.843372842E1,5.638286471E-1,1.878410578E-2,-1.278235465E-1
2.844372842E1,6.035348773E-1,6.719517522E-3,-1.986839175E-1
2.845372842E1,6.905831695E-1,-9.498954564E-2,-2.890919745E-1
2.846372842E1,7.113525867E-1,-1.844813079E-1,-2.829833329E-1
2.847372842E1,7.298312783E-1,-2.301434875E-1,-2.365575731E-1
2.848372842E1,7.605272532E-1,-2.335032374E-1,-1.646281779E-1
2.849372842E1,8.020660877E-1,-2.368630022E-1,-9.651670605E-2
2.850372842E1,8.448266387E-1,-2.257147133E-1,-4.535674304E-2
2.851372842E1,8.523097038E-1,-2.206750661E-1,7.024950348E-3
2.852372842E1,8.051204085E-1,-2.134974003E-1,2.428189293E-2
2.853372842E1,7.408268452E-1,-2.087631971E-1,4.520402849E-2
2.854372842E1,6.803511381E-1,-2.258674204E-1,6.017022580E-2
2.855372842E1,6.148358583E-1,-2.623666227E-1,6.169738993E-2
2.856372842E1,4.437935948E-1,-3.040581644E-1,7.941248268E-2
2.857372842E1,3.601050675E-1,-2.909245789E-1,9.926560521E-2
2.858372842E1,2.921462953E-1,-2.657263875E-1,1.079704314E-1
2.859372842E1,2.495384514E-1,-2.597704530E-1,9.468411654E-2
2.860372842E1,2.264782935E-1,-2.877175212E-1,6.551529467E-2
2.861372842E1,2.105957866E-1,-3.483459055E-1,3.878994286E-2
2.862372842E1,1.655444801E-1,-3.860668242E-1,8.552113548E-3
2.863372842E1,1.461495161E-1,-3.364340365E-1,3.420845419E-2
2.864372842E1,1.391245574E-1,-2.747366428E-1,8.414668590E-2
2.865372842E1,1.586722434E-1,-2.478585690E-1,1.267545372E-1
2.866372842E1,2.098322064E-1,-2.681698501E-1,1.485929638E-1
2.867372842E1,2.730567753E-1,-3.491095006E-1,1.459967941E-1
2.868372842E1,2.122756690E-1,-3.457497358E-1,1.328631938E-1
2.869372842E1,1.087340117E-1,-2.735149264E-1,8.063421398E-2
2.870372842E1,1.832595654E-2,-1.325577646E-1,-1.206458826E-2
2.871372842E1,-3.054326167E-3,2.916881628E-2,-1.281289905E-1
2.872372842E1,3.634648025E-2,1.959350258E-1,-2.469422817E-1
2.873372842E1,1.218676195E-1,5.337435007E-1,-3.026837409E-1
2.874372842E1,1.635591686E-1,6.104071140E-1,-2.029599845E-1
2.875372842E1,2.099849284E-1,5.864306092E-1,-1.579086632E-1
2.876372842E1,2.426662147E-1,3.999640048E-1,-2.125810981E-1
2.877372842E1,2.629774809E-1,2.171625942E-1,-2.953533530E-1
2.878372842E1,2.597704530E-1,-6.169738993E-2,-4.999932051E-1
2.879372842E1,3.066543639E-1,-9.208793938E-2,-5.904012322E-1
2.880372842E1,3.901901841E-1,-2.443460980E-3,-6.322455406E-1
2.881372842E1,4.824308157E-1,8.994990587E-2,-6.084218025E-1
2.882372842E1,5.532912016E-1,1.229366288E-1,-5.170974135E-1
2.883372842E1,5.415320396E-1,1.704314053E-1,-4.231768847E-1
2.884372842E1,3.236058652E-1,4.569272101E-1,-2.692388594E-1
2.885372842E1,2.353358418E-1,5.270239711E-1,-1.896736622E-1
2.886372842E1,1.835650057E-1,5.018258095E-1,-9.911288321E-2
2.887372842E1,1.623374373E-1,4.173736870E-1,7.330383174E-3
2.888372842E1,1.751656085E-1,3.220787048E-1,1.330159009E-1
2.889372842E1,1.459967941E-1,1.773036420E-1,3.200933933E-1
2.890372842E1,3.573561832E-2,1.456913650E-1,3.572034538E-1
2.891372842E1,-9.773843735E-2,1.440114826E-1,3.711006343E-1
2.892372842E1,-2.130392492E-1,1.461495161E-1,3.666718602E-1
2.893372842E1,-2.895501256E-1,1.434006095E-1,3.486513495E-1
2.894372842E1,-3.274237812E-1,1.299615800E-1,3.158173263E-1
2.895372842E1,-3.703370690E-1,7.513642311E-2,2.220495194E-1
2.896372842E1,-4.178318381E-1,3.970624134E-2,1.783726513E-1
2.897372842E1,-4.896084964E-1,-4.581489484E-4,1.446223408E-1
2.898372842E1,-5.758932233E-1,-3.711006418E-2,1.217148975E-1
2.899372842E1,-6.536257863E-1,-4.108068720E-2,1.000291854E-1
2.900372842E1,-7.643451095E-1,-3.680463135E-2,4.306599870E-2
2.901372842E1,-7.997753024E-1,-6.719517708E-2,-5.497787148E-3
2.902372842E1,-8.206974864E-1,-9.896016866E-2,-6.154467165E-2
2.903372842E1,-8.220719099E-1,-1.571450830E-1,-1.065959856E-1
2.904372842E1,-7.954992652E-1,-2.176207453E-1,-1.346957833E-1
2.905372842E1,-7.432702780E-1,-2.707660198E-1,-1.456913650E-1
2.906372842E1,-5.818491578E-1,-3.428481221E-1,-1.571450830E-1
2.907372842E1,-4.883867502E-1,-3.378084898E-1,-1.550070494E-1
2.908372842E1,-4.106541574E-1,-3.168863356E-1,-1.493565589E-1
2.909372842E1,-3.512475193E-1,-3.058907688E-1,-1.458440721E-1
2.910372842E1,-3.086396754E-1,-3.092505336E-1,-1.362229437E-1
2.911372842E1,-2.660318017E-1,-3.901901841E-1,-1.215621829E-1
2.912372842E1,-2.660318017E-1,-4.204280078E-1,-1.301143020E-1
2.913372842E1,-2.588541508E-1,-3.999640048E-1,-1.484402567E-1
2.914372842E1,-2.409863323E-1,-3.335324228E-1,-1.937969923E-1
2.915372842E1,-2.122756690E-1,-2.307543457E-1,-2.550362349E-1
2.916372842E1,-2.040289938E-1,-1.751656085E-1,-3.162754774E-1
2.917372842E1,-2.878702581E-1,-1.754710376E-1,-3.404046595E-1
2.918372842E1,-3.156646192E-1,-1.828014255E-1,-3.133738637E-1
2.919372842E1,-2.984076738E-1,-2.031126916E-1,-2.634356320E-1
2.920372842E1,-2.432770878E-1,-2.655736506E-1,-1.634064466E-1
2.921372842E1,-1.734857261E-1,-2.855795026E-1,-3.665191308E-2
2.922372842E1,-1.194241568E-1,-2.112066597E-1,1.093448773E-1
2.923372842E1,-7.605272532E-2,2.542726696E-1,3.610213697E-1
2.924372842E1,-6.520986557E-2,4.370740950E-1,3.839288056E-1
2.925372842E1,-5.192354694E-2,4.671591818E-1,3.558290005E-1
2.926372842E1,-8.613199741E-2,3.193297982E-1,3.048217595E-1
2.927372842E1,-1.189660057E-1,2.660318017E-1,2.855795026E-1
2.928372842E1,1.156062484E-1,4.612032473E-1,6.017022729E-1
2.929372842E1,3.002402782E-1,3.233004212E-1,8.636107445E-1
2.930372842E1,3.100140989E-1,1.459967941E-1,1.078635335E0
2.931372842E1,1.079704314E-1,5.375614017E-2,1.175915599E0
2.932372842E1,-1.508837193E-1,7.208210230E-2,1.110858440E0
2.933372842E1,-2.674062550E-1,1.970040351E-1,9.158397317E-1
2.934372842E1,-5.619960278E-2,4.602869749E-1,4.815145433E-1
2.935372842E1,8.552113548E-3,3.862195611E-1,3.031418920E-1
2.936372842E1,-4.657847434E-2,1.592831165E-1,1.572978050E-1
2.937372842E1,-1.281289905E-1,-5.039638281E-2,7.254024595E-2
2.938372842E1,-1.684460938E-1,-1.087340117E-1,1.908953860E-2
2.939372842E1,-9.269879758E-2,7.147123665E-2,-9.010262042E-2
2.940372842E1,1.832595794E-3,1.043052375E-1,-1.246165112E-1
2.941372842E1,1.183551401E-1,6.704246253E-2,-1.322523206E-1
2.942372842E1,2.373211533E-1,8.093964309E-3,-1.339322031E-1
2.943372842E1,3.173444867E-1,-2.550362423E-2,-1.548543423E-1
2.944372842E1,3.425426781E-1,-4.016438872E-2,-1.976149082E-1
2.945372842E1,3.553708494E-1,-5.604688451E-2,-3.002402782E-1
2.946372842E1,4.037819207E-1,-5.009094998E-2,-3.503312171E-1
2.947372842E1,4.787656367E-1,-3.054326214E-2,-3.872885704E-1
2.948372842E1,5.455026627E-1,-1.527163113E-4,-3.924809098E-1
2.949372842E1,5.917757154E-1,2.672535367E-2,-3.585779071E-1
2.950372842E1,6.243042946E-1,3.207042580E-3,-1.829541475E-1
2.951372842E1,6.345362663E-1,-2.321287990E-2,-8.765916526E-2
2.952372842E1,6.446155310E-1,-4.718934000E-2,-1.450804994E-2
2.953372842E1,6.459900141E-1,-7.605272532E-2,2.458732575E-2
2.954372842E1,6.316346526E-1,-1.014036313E-1,4.550946131E-2
2.955372842E1,6.085745096E-1,-1.244637966E-1,6.017022580E-2
2.956372842E1,5.613851547E-1,-9.300423414E-2,1.030835137E-1
2.957372842E1,5.396994352E-1,-4.108068720E-2,1.360702366E-1
2.958372842E1,4.862487316E-1,1.328631863E-2,1.495092660E-1
2.959372842E1,4.109596014E-1,5.787948146E-2,1.472185254E-1
2.960372842E1,3.248275816E-1,7.941248268E-2,1.438587606E-1
2.961372842E1,1.646281779E-1,4.016438872E-2,1.360702366E-1
2.962372842E1,1.099557430E-1,-3.863722831E-2,1.290452778E-1
2.963372842E1,7.971791178E-2,-1.452332139E-1,1.244637966E-1
2.964372842E1,8.353582025E-2,-2.432770878E-1,1.246165112E-1
2.965372842E1,1.027780771E-1,-2.806925774E-1,1.111774743E-1
2.966372842E1,1.343903542E-1,-2.709187269E-1,1.085812971E-1
2.967372842E1,2.073887438E-1,-1.241583601E-1,1.617265791E-1
2.968372842E1,2.328923792E-1,-8.414668590E-2,1.908953935E-1
2.969372842E1,2.609921694E-1,-1.262963861E-1,2.092213482E-1
2.970372842E1,2.805398703E-1,-2.290744632E-1,2.104430795E-1
2.971372842E1,2.744311988E-1,-2.944370508E-1,2.118175179E-1
2.972372842E1,1.637118906E-1,-9.651670605E-2,1.704314053E-1
2.973372842E1,1.192714423E-1,1.209513173E-1,7.987063378E-2
2.974372842E1,1.281289905E-1,2.948952019E-1,-5.222897977E-2
